index,acc_x_n,acc_y_n,acc_z_n,gyr_x_n,gyr_y_n,gyr_z_n,mag_x_n,mag_y_n,mag_z_n,acc_x_r,acc_y_r,acc_z_r,gyr_x_r,gyr_y_r,gyr_z_r,mag_x_r,mag_y_r,mag_z_r,q1n,q2n,q3n,q4n,q1r,q2r,q3r,q4r
0,-0.843994141,0.182128906,-0.487792969,0.099602225,0.118776985,0.026631611,1489,-197,-6187,-0.974853516,-0.121582031,-0.119140625,-0.037816887,0.076166407,-0.035153726,-5410,743,-946,-0.106321912,-0.86367905,0,0.492700872,0.082074438,-0.748462499,0,0.658078776
1,-0.840576172,0.178222656,-0.481933594,0.068176924,0.166181252,0.054861118,1489,-197,-6187,-0.979248047,-0.1171875,-0.114990234,-0.035153726,0.066046395,-0.004261058,-5410,743,-946,-0.105674642,-0.865430012,0.00125494,0.489757276,0.081589111,-0.749364119,-0.000401552,0.657112222
2,-0.837646484,0.177246094,-0.489257813,0.045273739,0.177366529,0.069242188,1485,-204,-6223,-0.977783203,-0.129882813,-0.118164063,-0.076166407,0.097471696,-0.000532632,-5398,692,-1299,-0.105551864,-0.867231355,0.002504518,0.486582274,0.080489651,-0.750739247,-0.001278627,0.655675502
3,-0.846923828,0.171386719,-0.479248047,-0.005326322,0.165115988,0.063383234,1485,-204,-6223,-0.979980469,-0.125244141,-0.119628906,-0.088416948,0.041545313,-0.044741106,-5398,692,-1299,-0.106219669,-0.868748267,0.003159172,0.483718772,0.079760875,-0.751393278,-0.003049078,0.655009196
4,-0.84375,0.185791016,-0.486572266,-0.004261058,0.172572839,0.010120012,1478,-216,-6219,-0.979003906,-0.121826172,-0.117675781,-0.119309617,0.018642128,-0.009054748,-5407,743,-936,-0.106412016,-0.870333145,0.002917347,0.480820328,0.078088469,-0.751784927,-0.004714251,0.654751395
5,-0.843994141,0.178955078,-0.488037109,-0.007456851,0.18002969,0.026631611,1478,-216,-6219,-0.976074219,-0.123779297,-0.118408203,-0.161920194,0.059122176,0.018642128,-5407,743,-936,-0.106785794,-0.871960275,0.002895055,0.477779961,0.075431121,-0.752762584,-0.006470443,0.653924133
6,-0.844726563,0.174316406,-0.485839844,0.001065264,0.121972778,0.05752428,1476,-219,-6206,-0.979003906,-0.121826172,-0.115722656,-0.18002969,0.06231797,-0.02876214,-5407,737,-938,-0.107277259,-0.873026013,0.003599389,0.475714426,0.073113503,-0.753772934,-0.009163556,0.652990665
7,-0.84375,0.1796875,-0.486328125,-0.029827404,0.100134857,0.086819052,1476,-219,-6206,-0.974609375,-0.115722656,-0.121337891,-0.125701203,0.101200121,-0.026098979,-5407,737,-938,-0.108594724,-0.873802965,0.004571969,0.473977491,0.071563228,-0.755209008,-0.011030562,0.651472475
8,-0.845703125,0.177490234,-0.485595703,-0.085221155,0.149137021,0.042610577,1468,-217,-6205,-0.978271484,-0.118652344,-0.120117188,-0.119842249,0.109189605,-0.01917476,-5415,746,-932,-0.110444098,-0.8749062,0.004124726,0.471512703,0.070023838,-0.756713363,-0.012712674,0.649861474
9,-0.848632813,0.178466797,-0.48828125,-0.090014845,0.150202285,0.067644292,1468,-217,-6205,-0.975585938,-0.116455078,-0.120361328,-0.087884316,0.105461179,-0.039414784,-5415,746,-932,-0.112597851,-0.875987859,0.004057108,0.468988843,0.069219996,-0.758100581,-0.01428101,0.648296347
10,-0.849365234,0.179199219,-0.486328125,-0.056991647,0.129962261,0.078296936,1469,-219,-6208,-0.973388672,-0.119140625,-0.116210938,-0.116113823,0.102265386,-0.031425301,-5414,745,-944,-0.114260909,-0.87692938,0.004521924,0.466817801,0.067895359,-0.759454238,-0.016105748,0.646807611
11,-0.840820313,0.179931641,-0.477783203,-0.068709556,0.133690687,0.072437982,1469,-219,-6208,-0.979492188,-0.116699219,-0.119140625,-0.075633775,0.067111659,0.016511599,-5414,745,-944,-0.116074698,-0.877853764,0.004761124,0.464625404,0.066546043,-0.760307509,-0.016719772,0.645929226
12,-0.8359375,0.182128906,-0.480957031,-0.0479369,0.08415589,0.052197957,1462,-214,-6196,-0.979248047,-0.118164063,-0.12109375,-0.096939064,0.068176924,0.020772657,-5417,750,-945,-0.11732949,-0.878369119,0.00495352,0.463332434,0.064828927,-0.761197938,-0.01755237,0.645032421
13,-0.849853516,0.179443359,-0.477050781,-0.066046395,0.103863282,0.070840085,1462,-214,-6196,-0.976806641,-0.117919922,-0.118408203,-0.095873799,0.076166407,0.014913702,-5417,750,-945,-0.119048641,-0.878988805,0.005235126,0.461712785,0.063212571,-0.762166042,-0.01845372,0.644023723
14,-0.853759766,0.170410156,-0.4765625,-0.091612741,0.10333065,0.087351684,1451,-222,-6265,-0.983642578,-0.121582031,-0.119140625,-0.169909678,0.107591708,0.026098979,-5423,746,-941,-0.121310447,-0.879526733,0.005536087,0.46009331,0.06035441,-0.763612862,-0.020113752,0.642532629
15,-0.856201172,0.173095703,-0.477050781,-0.13209279,0.152332814,0.089482213,1451,-222,-6265,-0.977783203,-0.124511719,-0.127929688,-0.217313945,0.225303428,0.070307453,-5423,746,-941,-0.124297506,-0.880395202,0.005372723,0.457630365,0.056278819,-0.766625843,-0.021590185,0.639258458
16,-0.855957031,0.176269531,-0.472412109,-0.131560158,0.170974942,0.093210638,1441,-220,-6174,-0.989257813,-0.155517578,-0.126953125,-0.220509738,0.596015452,0.1272991,-5415,745,-950,-0.127306267,-0.881399771,0.005224463,0.454862906,0.051724387,-0.774240884,-0.021923194,0.630392747
17,-0.849609375,0.176269531,-0.472900391,-0.108656972,0.241815027,0.037284255,1441,-220,-6174,-0.964111328,-0.148193359,-0.114746094,-0.471912145,0.343015148,0.129429629,-5415,745,-950,-0.129399848,-0.88308576,0.004110924,0.45099703,0.043156886,-0.778738154,-0.025661274,0.625336605
18,-0.850097656,0.181152344,-0.475830078,-0.101732754,0.254065568,0.002663161,1438,-202,-6163,-0.967773438,-0.118164063,-0.145019531,-0.679106078,-0.170974942,0.295078249,-5401,739,-993,-0.13107076,-0.88486773,0.002421043,0.447016438,0.028953815,-0.777042935,-0.029811802,0.628074208
19,-0.849609375,0.177490234,-0.477539063,-0.09374327,0.322242492,0.046871635,1438,-202,-6163,-0.965332031,-0.093994141,-0.137451172,-0.504935343,-0.274305592,0.368048863,-5401,739,-993,-0.132968355,-0.887231686,0.0013875,0.44174362,0.016446227,-0.773841508,-0.030682553,0.632421871
20,-0.848876953,0.181152344,-0.478271484,-0.029827404,0.272707696,0.043675842,1438,-211,-6152,-0.982910156,-0.092773438,-0.134277344,-0.255663465,-0.24980451,0.285490869,-5385,718,-1159,-0.133710534,-0.889281107,0.000996107,0.437378112,0.008888407,-0.770725169,-0.02970436,0.636412885
21,-0.841796875,0.18359375,-0.478515625,-0.078296936,0.366450966,0.028229508,1438,-211,-6152,-0.999755859,-0.099365234,-0.122314453,-0.102798018,-0.02876214,0.072970614,-5385,718,-1159,-0.135186784,-0.891969536,-0.000343568,0.431410202,0.006553136,-0.770193493,-0.030043475,0.637068622
22,-0.846679688,0.189697266,-0.496582031,0.011185277,0.436225787,-0.025033714,1456,-209,-6154,-0.97265625,-0.115234375,-0.131835938,-0.045273739,0.10333065,-0.164583355,-5389,717,-1027,-0.134619256,-0.895444965,-0.002037553,0.424325133,0.008256382,-0.771213884,-0.033329926,0.635649348
23,-0.779296875,0.221679688,-0.553955078,0.345145677,0.720118759,-0.578971221,1456,-209,-6154,-0.981933594,-0.114013672,-0.130615234,0.035686359,0.168311781,-0.335558297,-5389,717,-1027,-0.123571786,-0.902114138,-0.011413013,0.413267273,0.013365174,-0.772879901,-0.038155625,0.63326312
24,-0.918457031,0.216064453,-0.385253906,0.869788412,-1.342765822,-0.409061543,1470,-201,-6191,-0.983642578,-0.099609375,-0.120849609,0.170974942,0.273240328,-0.233825544,-5392,723,-1020,-0.105027026,-0.892027584,-0.008263819,0.439531367,0.01926323,-0.775813332,-0.039577311,0.629425323
25,-0.855957031,0.189208984,-0.457519531,0.713727172,0.007989483,-0.189084437,1470,-201,-6191,-0.970458984,-0.116210938,-0.125976563,0.355265689,0.244478188,-0.037816887,-5392,723,-1020,-0.090842122,-0.893113528,-0.005336418,0.440530881,0.02558535,-0.778412849,-0.035685706,0.626215105
26,-0.845458984,0.124023438,-0.487060547,-0.377636243,-1.04449178,0.664725008,1471,-224,-6212,-0.965332031,-0.134765625,-0.123046875,0.36272254,0.178431793,0.008522116,-5386,684,-1356,-0.103284257,-0.882827095,0.004936558,0.45817498,0.031460669,-0.780136707,-0.031057968,0.624045149
27,-0.814941406,0.142822266,-0.498779297,-0.393082577,-0.677508181,0.525707999,1471,-224,-6212,-0.972412109,-0.133789063,-0.121826172,0.293480352,0.085221155,-0.049534796,-5386,684,-1356,-0.11468103,-0.875555623,0.011846929,0.469159102,0.036895398,-0.780654748,-0.028232311,0.623233368
28,-0.851074219,0.195556641,-0.461914063,0.04314321,-0.532099586,0.31212248,1411,-245,-6194,-0.976318359,-0.123779297,-0.123535156,0.24980451,0.05273059,-0.08415589,-5381,721,-985,-0.116643967,-0.8703859,0.018856143,0.477982234,0.041997023,-0.780759338,-0.026460783,0.622857073
29,-0.880126953,0.180419922,-0.440429688,-0.037284255,0.036218991,0.327036182,1411,-245,-6194,-0.971923828,-0.129882813,-0.121582031,0.224238164,0.172040206,-0.067644292,-5381,721,-985,-0.120245194,-0.870295796,0.023940645,0.477025331,0.04656581,-0.782336538,-0.024651106,0.620623469
30,-0.866943359,0.164794922,-0.448974609,-0.010652644,0.239684498,0.256728729,1349,-253,-6099,-0.979492188,-0.140136719,-0.117431641,0.114515927,0.220509738,-0.102798018,-5387,717,-955,-0.122706212,-0.872227951,0.027509833,0.472657166,0.049896545,-0.784539074,-0.024714298,0.61757427
31,-0.862304688,0.151367188,-0.447509766,-0.022370553,0.16085493,0.172572839,1349,-253,-6099,-0.976074219,-0.123046875,-0.116210938,0.081492729,0.121440146,-0.087884316,-5387,717,-955,-0.124452816,-0.873402136,0.029646986,0.469894948,0.052395318,-0.785534599,-0.024980714,0.616089351
32,-0.87109375,0.158691406,-0.442138672,0.029827404,0.106526444,0.091612741,1329,-265,-6102,-0.968505859,-0.127929688,-0.121826172,0.046871635,0.170974942,-0.039947416,-5385,710,-948,-0.124520965,-0.874201617,0.031002283,0.468300032,0.053798793,-0.787196356,-0.024877856,0.61384744
33,-0.877197266,0.164550781,-0.440917969,0.109189605,0.055393751,-0.055393751,1329,-265,-6102,-0.976806641,-0.146484375,-0.124023438,0.090014845,0.171507574,-0.035686359,-5385,710,-948,-0.121837976,-0.874787658,0.030681382,0.467932382,0.055890291,-0.788797315,-0.024221463,0.611627658
34,-0.877197266,0.177490234,-0.436767578,0.217846577,0.059654808,-0.209324462,1319,-288,-6099,-0.982177734,-0.164794922,-0.107177734,-0.042077945,0.174170735,-0.044741106,-5379,709,-937,-0.115924717,-0.875727567,0.028736672,0.467800056,0.056079397,-0.790492176,-0.025363211,0.609371749
35,-0.877197266,0.177490234,-0.432373047,0.353135161,0.192812863,-0.339286723,1319,-288,-6099,-0.967041016,-0.15625,-0.125976563,-0.382429933,0.082557994,-0.110787501,-5379,709,-937,-0.106580696,-0.878200991,0.025522559,0.465566509,0.051607757,-0.791441836,-0.03177437,0.608232561
36,-0.865478516,0.177978516,-0.447021484,0.346210942,0.437823683,-0.330764607,1321,-280,-6111,-0.973876953,-0.148925781,-0.119384766,-0.532099586,0.133690687,-0.1272991,-5381,705,-949,-0.097628247,-0.882815162,0.021927227,0.458939334,0.044966211,-0.793042706,-0.040182003,0.606173831
37,-0.853027344,0.179443359,-0.458251953,0.300937203,0.333960401,-0.206661301,1321,-280,-6111,-0.974609375,-0.113037109,-0.1328125,-0.551806978,0.131560158,-0.10812434,-5381,705,-949,-0.090619507,-0.88622551,0.020354516,0.45384815,0.037631824,-0.794580542,-0.048416874,0.604054149
38,-0.873535156,0.160644531,-0.447021484,0.262587684,0.289751927,-0.064981131,1350,-289,-6157,-0.970458984,-0.087402344,-0.139404297,-0.306796158,0.005858954,-0.039414784,-5388,729,-966,-0.0855023,-0.888976375,0.020990516,0.449410458,0.033141965,-0.794442476,-0.052624101,0.604146891
39,-0.854248047,0.149902344,-0.464355469,0.227433957,0.387223623,-0.15126755,1350,-289,-6157,-0.993896484,-0.087158203,-0.128662109,-0.129429629,-0.009054748,0.096406431,-5388,729,-966,-0.08026643,-0.8925426,0.019619959,0.443328393,0.029827629,-0.794090222,-0.052548761,0.604788938
40,-0.885742188,0.152832031,-0.456298828,0.298274042,0.349939367,-0.309991951,1374,-323,-6276,-0.993652344,-0.113525391,-0.120605469,-0.027696875,0.075101143,0.148604389,-5395,755,-976,-0.072415662,-0.895787229,0.016139058,0.438247353,0.027714978,-0.794704656,-0.05046298,0.604259776
41,-0.842773438,0.208496094,-0.46875,0.136353848,0.569916473,-0.269511902,1374,-323,-6276,-0.967529297,-0.117919922,-0.115966797,-0.013848438,0.041012681,-0.027696875,-5395,755,-976,-0.068198779,-0.900606096,0.011813343,0.429089771,0.02794309,-0.794711035,-0.051050967,0.604191488
42,-0.839599609,0.187988281,-0.494384766,-0.281229811,0.506533239,0.049002164,1390,-311,-6246,-0.969482422,-0.107421875,-0.127685547,-0.04314321,0.059654808,-0.134223319,-5393,731,-965,-0.074069224,-0.904138059,0.009653397,0.420660115,0.02894786,-0.794882418,-0.053627906,0.603695296
43,-0.838867188,0.181640625,-0.469482422,-0.145408596,0.421312084,0.085221155,1390,-311,-6246,-0.979003906,-0.106933594,-0.122558594,-0.022903185,0.055393751,-0.037816887,-5393,731,-965,-0.077731852,-0.906986911,0.009374463,0.413817137,0.029097824,-0.79506951,-0.054418935,0.60337084
44,-0.870117188,0.146728516,-0.463867188,-0.210389726,0.431432097,0.227966589,1419,-301,-6258,-0.980224609,-0.111572266,-0.12890625,-0.031957933,0.029827404,0.011185277,-5392,733,-970,-0.083532359,-0.909657204,0.011002389,0.4067248,0.028504772,-0.795024019,-0.054572124,0.60344525
45,-0.863525391,0.200927734,-0.456542969,-0.182692851,0.446345799,0.440486844,1419,-301,-6258,-0.972900391,-0.1171875,-0.127685547,0.00479369,0.075633775,-0.028229508,-5392,733,-970,-0.090733009,-0.912289709,0.016748788,0.3990169,0.029043675,-0.795460062,-0.05489801,0.602815033
46,-0.883056641,0.130859375,-0.468505859,0.162452827,0.394680474,0.520914309,1424,-290,-6216,-0.972167969,-0.118408203,-0.134521484,0.04314321,0.076166407,-0.119842249,-5389,709,-1122,-0.091868061,-0.914966277,0.026612714,0.392031549,0.031282759,-0.795794043,-0.056206319,0.602141246
47,-0.867431641,0.130859375,-0.468261719,0,0.114515927,0.283892972,1424,-290,-6216,-0.979736328,-0.118652344,-0.123535156,0.074035878,0.101200121,-0.143810699,-5389,709,-1122,-0.093940914,-0.915199578,0.031362399,0.390642083,0.034307613,-0.796334595,-0.057480406,0.601140751
48,-0.845703125,0.151855469,-0.480957031,-0.103863282,0.134223319,-0.030360036,1413,-334,-6315,-0.974853516,-0.117919922,-0.129882813,0.084688523,0.107059076,-0.082025362,-5405,736,-938,-0.095568814,-0.915602834,0.029558436,0.389441076,0.036750376,-0.797016731,-0.057623192,0.600077752
49,-0.836914063,0.175048828,-0.470214844,-0.012783173,0.140082273,-0.295078249,1413,-334,-6315,-0.970458984,-0.120605469,-0.122070313,0.024501082,0.071905349,-0.049002164,-5405,736,-938,-0.093627403,-0.916335031,0.023674528,0.388591736,0.037804051,-0.797330022,-0.057986731,0.599560863
50,-0.846435547,0.165771484,-0.470703125,-0.01438107,0.086286419,-0.339819355,1407,-337,-6303,-0.971191406,-0.114013672,-0.135986328,-0.027164243,-0.000532632,-0.069242188,-5400,740,-931,-0.09132825,-0.916619473,0.017063948,0.388814498,0.038153186,-0.796837095,-0.059321938,0.600063235
51,-0.826171875,0.185302734,-0.478759766,-0.005858954,-0.015978967,-0.202400243,1407,-337,-6303,-0.982666016,-0.1015625,-0.128173828,0.11291803,-0.018642128,-0.024501082,-5400,740,-931,-0.090014854,-0.916080029,0.013294022,0.390535499,0.040117734,-0.796053908,-0.058227738,0.601080922
52,-0.879150391,0.158203125,-0.455322266,0.026098979,-0.051132693,0.007989483,1418,-326,-6309,-0.981933594,-0.110595703,-0.122558594,0.185888644,0.072970614,0.021837921,-5398,687,-1263,-0.089613649,-0.915181557,0.013616326,0.392717083,0.042829374,-0.796338754,-0.055467521,0.600777486
53,-0.868896484,0.154785156,-0.463378906,-0.030892669,0.149137021,0.13209279,1418,-326,-6309,-0.973388672,-0.118408203,-0.128417969,0.201867611,0.090014845,-0.001065264,-5398,687,-1263,-0.091248144,-0.91573214,0.015388936,0.390987985,0.046114984,-0.796792485,-0.052885338,0.600165215
54,-0.869384766,0.156738281,-0.465332031,-0.149137021,0.180562322,0.02876214,1416,-315,-6283,-0.968994141,-0.118408203,-0.124755859,0.200802346,0.077764304,-0.005858954,-5411,727,-898,-0.094241997,-0.91632992,0.014276529,0.388914007,0.049422388,-0.797070779,-0.050395369,0.599746536
55,-0.850341797,0.164306641,-0.445556641,-0.070307453,0.324373021,-0.154995975,1416,-315,-6283,-0.975830078,-0.114257813,-0.128173828,0.207726565,0.034621094,0.072437982,-5411,727,-898,-0.094477093,-0.918183643,0.010161592,0.384590197,0.051838779,-0.796901383,-0.046603338,0.600074208
56,-0.857666016,0.18359375,-0.454101563,-0.012783173,0.312655112,-0.212520255,1410,-301,-6273,-1.009277344,-0.142822266,-0.120605469,0.284958237,-0.072970614,0.145408596,-5398,709,-884,-0.093311171,-0.920015713,0.00550318,0.380570398,0.054617101,-0.795379234,-0.040912693,0.602258248
57,-0.867675781,0.150390625,-0.466796875,-0.222640267,0.256728729,-0.083090626,1410,-301,-6273,-0.992431641,-0.160644531,-0.093261719,0.201334978,-0.32650355,0.143810699,-5398,709,-884,-0.09679855,-0.920990848,0.001656892,0.377363425,0.055967968,-0.790810733,-0.036601279,0.608396514
58,-0.849365234,0.16015625,-0.487792969,-0.543817495,0.115581191,-0.198671817,1421,-285,-6263,-0.968261719,-0.179931641,-0.1015625,-0.193345495,-0.149669653,0.183758115,-5393,686,-867,-0.105315348,-0.92025751,-0.006463996,0.376819598,0.050828904,-0.788864325,-0.036362404,0.611381447
59,-0.875732422,0.161865234,-0.447265625,-0.321177227,-0.083090626,-0.491086905,1421,-285,-6263,-0.981201172,-0.150146484,-0.103271484,-0.514522723,0.243945556,0.113983295,-5393,686,-867,-0.107598888,-0.918247234,-0.017867623,0.380690484,0.041662795,-0.791913781,-0.040678402,0.607850346
60,-0.870849609,0.217041016,-0.424560547,-0.054861118,0.121440146,-0.815992558,1440,-251,-6210,-0.993164063,-0.129394531,-0.095214844,-0.889495804,-0.225303428,0.074035878,-5387,679,-849,-0.102788541,-0.918010556,-0.033472844,0.381537291,0.026602689,-0.789347974,-0.050535367,0.611284099
61,-0.887939453,0.2421875,-0.389160156,0.573644899,0.412257337,-0.89801792,1440,-251,-6210,-0.968261719,-0.114990234,-0.108154297,-0.875114734,0.112385398,0.004261058,-5387,679,-849,-0.085883143,-0.920780204,-0.04621252,0.377693401,0.012938588,-0.790604481,-0.061122712,0.609131482
62,-0.858886719,0.217041016,-0.460449219,0.437291051,0.781371464,-0.630103914,1481,-190,-6170,-1.006347656,-0.095703125,-0.118896484,-0.69881347,0.071372717,-0.039947416,-5390,690,-887,-0.073081609,-0.92603719,-0.055618784,0.36608845,0.002473847,-0.79107686,-0.070209144,0.607669283
63,-0.854492188,0.178466797,-0.489013672,0.088416948,0.675910285,-0.120374881,1481,-190,-6170,-0.964355469,-0.073730469,-0.094482422,-0.503870078,-0.155528608,-0.087351684,-5390,690,-887,-0.07038951,-0.930323654,-0.058030297,0.355212192,-0.004715929,-0.788554745,-0.077626468,0.610027299
64,-0.812255859,0.159667969,-0.527099609,-0.783501992,0.754207221,0.471379513,1550,-200,-6325,-0.964355469,-0.099609375,-0.117675781,-0.139549641,0.018109495,0.092678006,-5403,720,-904,-0.087757892,-0.934361143,-0.055839165,0.340807561,-0.007956786,-0.788475357,-0.077880508,0.610063872
65,-0.801025391,0.174316406,-0.530761719,-1.561145031,0.510261665,0.798948327,1550,-200,-6325,-0.984130859,-0.108642578,-0.116455078,0.012783173,0.250337142,0.18002969,-5403,720,-904,-0.121862886,-0.934873229,-0.052509433,0.329247994,-0.009446883,-0.791332409,-0.074975139,0.606698033
66,-0.822509766,0.232421875,-0.479980469,-1.483913359,0.248739246,0.564590151,1573,-177,-6255,-0.978027344,-0.109619141,-0.122802734,0.131560158,0.140614906,0.304132996,-5402,717,-915,-0.153219506,-0.932415408,-0.052448214,0.323070387,-0.010682832,-0.793043063,-0.068681585,0.605187093
67,-0.823486328,0.235595703,-0.483642578,-0.873516838,0.352069896,0.065513763,1573,-177,-6255,-0.971435547,-0.147216797,-0.116943359,0.121440146,0.110254869,0.128896997,-5402,717,-915,-0.169678927,-0.931335156,-0.05814402,0.316927693,-0.009836853,-0.794085583,-0.065407698,0.604196289
68,-0.833251953,0.206054688,-0.494384766,-0.54754592,0.055926383,-0.352069896,1545,-102,-6116,-0.951660156,-0.162597656,-0.114746094,-0.001597897,0.472444777,0.016511599,-5391,685,-927,-0.177539684,-0.928788556,-0.068626572,0.317996656,-0.009039997,-0.799242812,-0.065520072,0.597357788
69,-0.833007813,0.220947266,-0.476806641,-0.309991951,0.035153726,-0.486293215,1545,-102,-6116,-0.95703125,-0.127197266,-0.158447266,-0.453270018,0.225303428,-0.216781313,-5391,685,-927,-0.180238829,-0.92659909,-0.079975929,0.320206093,-0.013164757,-0.801097645,-0.074580609,0.593722987
70,-0.832763672,0.234130859,-0.479248047,-0.097471696,0.018109495,-0.363255173,1551,-27,-6020,-1.237060547,-0.108398438,-0.162353516,0.345678309,-0.548611185,-0.511326929,-5376,587,-1495,-0.179865688,-0.925176444,-0.0875721,0.322533732,-0.002403615,-0.793367253,-0.078448202,0.603662575
71,-0.840087891,0.224609375,-0.487792969,0.022370553,0.158191769,-0.09374327,1551,-27,-6020,-1.736328125,-0.517089844,-0.120849609,0.47297741,-0.755805117,-1.783252666,-5376,587,-1495,-0.17871037,-0.925532732,-0.089920346,0.321505982,0.025924305,-0.780267076,-0.101214223,0.616657848
72,-0.80859375,0.217285156,-0.493896484,-0.022370553,0.21624868,0.176301264,1575,14,-5986,-0.321044922,1.273193359,-0.088378906,-0.582699646,-0.047404267,1.64263776,-5381,632,-1492,-0.179956203,-0.926606871,-0.087775118,0.31829389,-0.008636909,-0.783360324,-0.078766202,0.616496465
73,-0.841308594,0.212890625,-0.465332031,0.202932875,0.077231672,0.331829872,1575,14,-5986,-2,-1.228027344,-0.149658203,1.503620751,-0.815459926,-3.036003643,-5381,632,-1492,-0.178262367,-0.927768619,-0.080846307,0.317697643,0.052257605,-0.766376123,-0.108367005,0.631025651
74,-0.8203125,0.196289063,-0.455566406,0.393615209,0.077764304,0.210922358,1569,9,-5981,-0.441162109,-0.907958984,-0.255371094,1.264468885,2.113484641,1.24635939,-5388,663,-1387,-0.172226198,-0.929356659,-0.074951735,0.317831046,0.063779188,-0.793250541,-0.073609522,0.601055266
75,-0.794433594,0.230712891,-0.508789063,0.357396218,0.390952048,-0.528903793,1569,9,-5981,-0.764648438,-0.225830078,-0.186767578,0.395213106,1.463673335,-0.144343331,-5388,663,-1387,-0.16187719,-0.931642468,-0.083958923,0.314307155,0.074247677,-0.809456966,-0.069436937,0.578312384
76,-0.790771484,0.308837891,-0.541992188,0.577905957,-0.238619234,-1.356614259,1553,-20,-6009,-1.164306641,-0.213134766,-0.194580078,0.436225787,0.524642735,-0.541154334,-5379,661,-1162,-0.143691423,-0.928845308,-0.104625979,0.325042418,0.088150291,-0.813504852,-0.072142035,0.570293704
77,-0.807861328,0.262207031,-0.486572266,0.929443221,-1.019458065,-1.63784407,1553,-20,-6009,-0.922607422,-0.111328125,-0.080566406,-0.373907817,0.78989358,-0.281229811,-5379,661,-1162,-0.118712903,-0.920117461,-0.125691275,0.351415436,0.086044323,-0.821865596,-0.079131504,0.557558537
78,-0.768066406,0.287841797,-0.499023438,0.752076692,-1.721999961,-1.542502903,1595,-1,-6020,-0.881591797,-0.072509766,-0.146972656,0.077231672,0.14647386,-0.306796158,-5390,727,-802,-0.099466433,-0.904569541,-0.144020989,0.38873941,0.090370871,-0.822332475,-0.082499149,0.555694427
79,-0.873779297,0.199951172,-0.415039063,0.947552716,-2.332396483,-1.466336497,1595,-1,-6020,-1.0078125,-0.115234375,-0.160888672,0.484695318,-0.096939064,-0.402669957,-5390,727,-802,-0.078581104,-0.882229853,-0.157744255,0.436591624,0.102117088,-0.819121809,-0.083368346,0.558266317
80,-0.898925781,0.193603516,-0.407714844,0.913464254,-1.257544667,-1.397094308,1604,73,-5955,-1.049072266,0.072509766,-0.088378906,0.65087657,-0.769653555,-0.121440146,-5395,679,-1258,-0.055436814,-0.867269562,-0.171609372,0.464026389,0.111565863,-0.808278523,-0.078534157,0.572775064
81,-0.943115234,0.258544922,-0.339599609,0.276436121,-0.649278674,-0.352069896,1604,73,-5955,-1.289306641,-0.837646484,-0.244384766,1.142496108,0.15606124,-1.292165761,-5395,679,-1258,-0.051188408,-0.859913683,-0.173504948,0.477309374,0.146000941,-0.804493357,-0.086523071,0.569199369
82,-0.885498047,0.367431641,-0.289794922,-0.506533239,0.51878378,1.035437032,1581,114,-5874,-1.834716797,-0.255859375,-0.075195313,0.358461483,-1.360875317,-2.564091497,-5404,665,-1359,-0.069926058,-0.867255221,-0.159948775,0.466256494,0.177326278,-0.781710976,-0.126389305,0.584387786
83,-0.9375,0.298095703,-0.296142578,-0.044208474,1.156877177,1.185106685,1581,114,-5874,-1.386962891,-1.522216797,-0.242431641,1.132376095,-0.16085493,-2.676476896,-5404,665,-1359,-0.079491538,-0.88067721,-0.140600793,0.445331522,0.226617521,-0.767269196,-0.156030205,0.579307393
84,-0.801269531,0.296386719,-0.431640625,1.110538174,1.737446295,0.476705835,1545,91,-5885,-1.789794922,-0.372802734,-0.065185547,-0.625310224,-1.356614259,0.026098979,-5411,678,-1303,-0.060769567,-0.898125204,-0.124253596,0.417419718,0.21129114,-0.753910646,-0.167743298,0.599030031
85,-0.831054688,0.254638672,-0.404541016,1.180845627,0.011717909,0.29294772,1545,91,-5885,-1.271728516,-0.310058594,-0.247314453,0.287088766,-0.395745738,-0.068709556,-5411,678,-1303,-0.043372179,-0.899697005,-0.108450485,0.420597961,0.213941279,-0.74797479,-0.166031155,0.605967407
86,-0.898681641,0.161865234,-0.452636719,1.026382284,-0.061785337,0.223705532,1548,-35,-6059,-0.840332031,-0.144287109,-0.096679688,-1.116397129,0.399474164,0.390419416,-5400,733,-751,-0.027872587,-0.899932172,-0.09524836,0.424585627,0.192537841,-0.758638546,-0.170787305,0.598521873
87,-0.883300781,0.202392578,-0.459472656,0.503870078,0.257793994,0.199737082,1548,-35,-6059,-0.895263672,-0.084960938,-0.11328125,-0.327568814,0.167246516,0.227433957,-5400,733,-751,-0.021161967,-0.902323628,-0.086955613,0.421666886,0.18393154,-0.76269166,-0.169270921,0.596504799
88,-0.899902344,0.155517578,-0.432617188,0.014913702,0.09853696,0.288686662,1543,-129,-6223,-0.936279297,-0.1015625,-0.136474609,-0.345145677,0.100134857,0.036751623,-5387,709,-761,-0.024065975,-0.903160609,-0.08122108,0.420862066,0.177145017,-0.765313636,-0.171199121,0.59464741
89,-0.846679688,0.155517578,-0.442626953,-0.226368693,0.52837116,0.330764607,1543,-129,-6223,-0.969970703,-0.099121094,-0.149414063,-0.357396218,-0.083090626,-0.00479369,-5387,709,-761,-0.030942617,-0.907501614,-0.077003037,0.411769241,0.170015346,-0.765627088,-0.174567785,0.595345305
90,-0.880859375,0.211425781,-0.430908203,-0.271642431,0.363255173,0.217846577,1525,-189,-6339,-0.970458984,-0.089111328,-0.153076172,-0.384560461,0.037284255,0.113983295,-5380,674,-1067,-0.038158238,-0.910091845,-0.075043536,0.405765018,0.161464398,-0.767812555,-0.17603271,0.594479279
91,-0.854248047,0.205322266,-0.452880859,-0.294012984,0.563524887,0.204530772,1525,-189,-6339,-0.975830078,-0.108398438,-0.143066406,-0.18961707,0.027164243,0.120907513,-5380,674,-1067,-0.045291343,-0.91416994,-0.073724498,0.395988275,0.155894669,-0.769153472,-0.175179233,0.594484672
92,-0.84375,0.205322266,-0.459228516,-0.338221458,0.213585519,0.173638103,1531,-189,-6272,-0.973876953,-0.122314453,-0.136474609,-0.118244352,0.101732754,-0.022903185,-5383,717,-790,-0.053443906,-0.915285948,-0.073053222,0.392503005,0.153461588,-0.770586027,-0.175502948,0.593165602
93,-0.857666016,0.200195313,-0.445556641,-0.403202589,0.178964425,0.207193933,1531,-189,-6272,-0.968994141,-0.10546875,-0.148681641,-0.142745434,0.042610577,-0.100667489,-5383,717,-790,-0.063006478,-0.9159772,-0.072304684,0.389599776,0.151291198,-0.771157161,-0.177466239,0.592396269
94,-0.849609375,0.215332031,-0.455566406,-0.360592012,0.211987623,0.169909678,1527,-170,-6247,-0.983398438,-0.111083984,-0.132568359,-0.189084437,0.135288583,-0.006924219,-5386,717,-798,-0.071448265,-0.916855294,-0.071968934,0.386124317,0.147668297,-0.773203084,-0.178261253,0.59040155
95,-0.854980469,0.209472656,-0.441894531,-0.567785944,0.312655112,0.13209279,1527,-170,-6247,-0.966552734,-0.116210938,-0.143066406,-0.183758115,0.082557994,-0.058589544,-5386,717,-798,-0.083155487,-0.917994652,-0.074136793,0.380624118,0.144571583,-0.774425184,-0.179990289,0.589040056
96,-0.832519531,0.229492188,-0.460449219,-0.481499525,0.330764607,-0.026098979,1523,-151,-6209,-0.973388672,-0.120605469,-0.134521484,-0.159257033,0.120374881,-0.086286419,-5380,718,-800,-0.092072643,-0.919077595,-0.078582626,0.375025031,0.142338928,-0.775858755,-0.181756648,0.587151891
97,-0.834228516,0.236816406,-0.454833984,-0.37230992,-0.15606124,0.038882152,1523,-151,-6209,-0.977539063,-0.118896484,-0.140625,-0.152865447,0.074568511,-0.120907513,-5380,718,-800,-0.100203563,-0.91671951,-0.080137768,0.378368238,0.140428638,-0.776606173,-0.18411565,0.585887428
98,-0.874511719,0.2265625,-0.419433594,-0.250869775,0.020240024,0.128896997,1528,-117,-6156,-0.978271484,-0.111328125,-0.137207031,-0.182692851,0.095341167,-0.069242188,-5385,726,-806,-0.106424337,-0.915930719,-0.079536171,0.378706715,0.137504013,-0.777839591,-0.185945554,0.584365012
99,-0.851074219,0.224365234,-0.448974609,-0.115581191,0.280697179,0.051132693,1528,-117,-6156,-0.970703125,-0.113769531,-0.141113281,-0.132625422,0.109722237,-0.029294772,-5385,726,-806,-0.109110713,-0.917305246,-0.079912335,0.374512959,0.134963604,-0.779233479,-0.186554716,0.582904237
100,-0.850830078,0.232421875,-0.448730469,-0.072437982,0.169909678,0.005858954,1509,-97,-6120,-0.978027344,-0.105957031,-0.145263672,-0.048469532,0.080427465,0,-5389,734,-801,-0.110869811,-0.917848557,-0.080551937,0.372522881,0.133258252,-0.78016726,-0.185797713,0.582289013
101,-0.843017578,0.235351563,-0.445068359,-0.044208474,0.029294772,-0.006924219,1509,-97,-6120,-0.977539063,-0.114501953,-0.146484375,0.011717909,0.043675842,0.031425301,-5389,734,-801,-0.112253945,-0.917385877,-0.080901875,0.373171663,0.132036531,-0.780616006,-0.183987771,0.582540562
102,-0.864257813,0.232177734,-0.434570313,0.015446334,0.042610577,0.001597897,1519,-89,-6113,-0.977294922,-0.117675781,-0.137207031,-0.006924219,0.08415589,0.026098979,-5378,701,-1059,-0.112569103,-0.917133504,-0.080695565,0.373741298,0.1307671,-0.781523867,-0.182384815,0.582113554
103,-0.863037109,0.223876953,-0.434082031,-0.01438107,0.217846577,0.029827404,1519,-89,-6113,-0.974121094,-0.119384766,-0.145019531,-0.097471696,0.062850602,-0.003195793,-5378,701,-1059,-0.113319288,-0.918154379,-0.080611167,0.371016327,0.128359504,-0.782322115,-0.182375339,0.581579902
104,-0.869628906,0.215087891,-0.439697266,0.036218991,0.191747598,0.03355583,1517,-83,-6095,-0.978027344,-0.112304688,-0.137207031,-0.131560158,0.071905349,0.007456851,-5390,726,-792,-0.113159788,-0.919089869,-0.080050135,0.368864001,0.125317157,-0.783314883,-0.182559203,0.580848983
105,-0.861572266,0.227783203,-0.452148438,0.018642128,0.267914006,-0.056459015,1517,-83,-6095,-0.973632813,-0.116455078,-0.142089844,-0.164050723,0.086286419,-0.022903185,-5390,726,-792,-0.112594857,-0.920407737,-0.081419067,0.365435264,0.122196347,-0.784431399,-0.183590272,0.579680985
106,-0.879638672,0.208496094,-0.428710938,0.010652644,0.110787501,-0.007989483,1522,-89,-6104,-0.978027344,-0.113037109,-0.142089844,-0.211454991,0.058056912,-0.028229508,-5381,733,-800,-0.11271978,-0.920573087,-0.081641284,0.364930327,0.118285015,-0.785290938,-0.185325072,0.578775791
107,-0.854980469,0.217773438,-0.450195313,-0.017576863,0.28336034,-0.01438107,1522,-89,-6104,-0.979736328,-0.105712891,-0.143066406,-0.220509738,0.067644292,-0.02876214,-5381,733,-800,-0.113064637,-0.921958671,-0.082556614,0.361099714,0.114253853,-0.78625675,-0.187142912,0.57768842
108,-0.861572266,0.209716797,-0.442871094,-0.039414784,0.157659137,0.042077945,1521,-90,-6109,-0.975830078,-0.101074219,-0.149658203,-0.164583355,0.058056912,0.001597897,-5380,684,-1115,-0.114385517,-0.92244617,-0.082331309,0.359486541,0.110708923,-0.787092873,-0.187869498,0.577003809
109,-0.847900391,0.224121094,-0.445800781,-0.120907513,0.088416948,-0.006924219,1521,-90,-6109,-0.975830078,-0.109863281,-0.136962891,-0.157126504,0.072970614,0.000532632,-5380,684,-1115,-0.117025041,-0.922180289,-0.083417043,0.359068588,0.10740551,-0.788010369,-0.188522131,0.576162409
110,-0.855224609,0.228759766,-0.437011719,-0.092145374,0.1272991,-0.040480049,1525,-83,-6103,-0.975097656,-0.102783203,-0.14453125,-0.133690687,0.041012681,0.002130529,-5395,739,-798,-0.118849415,-0.922174394,-0.08500743,0.358110234,0.10431348,-0.78852472,-0.188950794,0.575886327
111,-0.859130859,0.227539063,-0.431152344,-0.041545313,0.188551805,-0.076166407,1525,-83,-6103,-0.973388672,-0.103271484,-0.147705078,-0.121440146,0.045806371,0.039947416,-5395,739,-798,-0.119384485,-0.922639793,-0.087044433,0.35623928,0.101017196,-0.789201149,-0.188655287,0.575644209
112,-0.853271484,0.224365234,-0.429443359,-0.003195793,0.228499222,-0.043675842,1521,-87,-6094,-0.976074219,-0.112060547,-0.140869141,-0.108656972,0.082557994,0.025033714,-5395,740,-800,-0.119368167,-0.923521792,-0.088308831,0.353638643,0.098286212,-0.790168477,-0.188406801,0.574870835
113,-0.843505859,0.231933594,-0.447021484,-0.02396845,0.271109799,-0.053263222,1521,-87,-6094,-0.973388672,-0.104736328,-0.143554688,-0.107059076,0.094808535,0.005326322,-5395,740,-800,-0.119611886,-0.924651829,-0.089986095,0.350163526,0.095834958,-0.79119443,-0.188424022,0.573867077
114,-0.862792969,0.221191406,-0.431884766,-0.083090626,0.163518091,0.020772657,1528,-94,-6157,-0.974853516,-0.112304688,-0.146240234,-0.094808535,0.110254869,0.006391587,-5387,735,-798,-0.121609225,-0.924962904,-0.090487352,0.348520964,0.093664093,-0.792357263,-0.18828966,0.572663958
115,-0.859375,0.232666016,-0.435058594,-0.053795854,0.256196097,0.026098979,1528,-94,-6157,-0.979248047,-0.118896484,-0.141113281,-0.087351684,0.128896997,-0.006391587,-5387,735,-798,-0.122975777,-0.925987192,-0.090902064,0.34519776,0.091863945,-0.793628529,-0.188260042,0.571203055
116,-0.859619141,0.223632813,-0.437011719,-0.031425301,0.229031854,0.037816887,1526,-71,-6104,-0.977539063,-0.117431641,-0.142333984,-0.156593872,0.117179088,-0.003728426,-5391,727,-808,-0.124006948,-0.926882134,-0.090907375,0.342414422,0.088895199,-0.794884099,-0.189010981,0.569676893
117,-0.852539063,0.224609375,-0.440917969,-0.002130529,0.033023198,0.00479369,1526,-71,-6104,-0.973876953,-0.113769531,-0.145507813,-0.143278067,0.092145374,-0.006924219,-5391,727,-808,-0.1246213,-0.926458259,-0.090838839,0.343355402,0.086075724,-0.795808439,-0.189712744,0.568585062
118,-0.863525391,0.224609375,-0.437988281,-0.056991647,0.107059076,-0.005858954,1534,-80,-6164,-0.976806641,-0.115478516,-0.14453125,-0.12250541,0.034088462,-0.035153726,-5389,730,-821,-0.126036496,-0.926370495,-0.091538155,0.342889593,0.083700586,-0.795911739,-0.190740046,0.568451361
119,-0.851806641,0.236572266,-0.439941406,-0.049002164,0.067644292,-0.001065264,1534,-80,-6164,-0.966552734,-0.127197266,-0.141845703,-0.071372717,0.039947416,-0.068709556,-5389,730,-821,-0.127455541,-0.926053696,-0.091975343,0.343103736,0.082598949,-0.795845776,-0.19174801,0.56836574
120,-0.864746094,0.227539063,-0.439208984,-0.015978967,0.074035878,0.015978967,1532,-86,-6148,-0.975097656,-0.126464844,-0.125976563,0.027696875,-0.08894958,-0.19920445,-5386,733,-814,-0.128314388,-0.925884197,-0.091914158,0.343257425,0.08404244,-0.793617098,-0.193885269,0.57054121
121,-0.857177734,0.234863281,-0.437011719,-0.05273059,0.011185277,-0.00479369,1532,-86,-6148,-0.965332031,-0.107666016,-0.131835938,-0.396811002,-0.193345495,-0.140082273,-5386,733,-814,-0.129855797,-0.92515696,-0.092316802,0.3445282,0.0775966,-0.791149345,-0.200053534,0.572747819
122,-0.862060547,0.225585938,-0.427246094,-0.053795854,-0.003728426,0.040480049,1516,-70,-6081,-0.952636719,-0.128173828,-0.141113281,-0.659398686,-0.096406431,-0.093210638,-5404,744,-777,-0.13170823,-0.924389805,-0.091876573,0.345998737,0.066951424,-0.790272214,-0.208401991,0.572325033
123,-0.855712891,0.229248047,-0.434570313,-0.059654808,0.053263222,0.058589544,1516,-70,-6081,-0.992431641,-0.135253906,-0.142578125,-0.593884923,-0.052197957,-0.27377296,-5404,744,-777,-0.133680952,-0.924049982,-0.09129542,0.346303594,0.059585016,-0.788894311,-0.218762379,0.57117284
124,-0.871582031,0.226074219,-0.419433594,-0.073503246,0.105993811,-0.038882152,1508,-52,-6050,-0.999023438,-0.118652344,-0.151123047,-0.78989358,0.068709556,-0.125168571,-5405,776,-782,-0.135135544,-0.923818244,-0.092768537,0.345965657,0.047899052,-0.789614816,-0.22880965,0.567327301
125,-0.864257813,0.250732422,-0.426269531,0.029827404,0.032490565,-0.029294772,1508,-52,-6050,-0.954833984,-0.093994141,-0.159423828,-0.909735828,0.173638103,0.024501082,-5405,776,-782,-0.134986507,-0.923392819,-0.093102312,0.347068156,0.033052569,-0.792089098,-0.237695275,0.561251588
126,-0.886474609,0.314208984,-0.416992188,0.106526444,0.166181252,-0.070840085,1506,-59,-6027,-0.984863281,-0.071777344,-0.146484375,-0.916127415,-0.012250541,0.070840085,-5421,783,-1058,-0.133177497,-0.923983044,-0.093916105,0.345975223,0.01663851,-0.792362297,-0.24594319,0.558029656
127,-0.845703125,0.310058594,-0.379882813,0.118244352,0.325970917,0.59068913,1506,-59,-6027,-0.991455078,-0.057373047,-0.143798828,-0.454335282,0.102798018,0.121972778,-5421,783,-1058,-0.135434706,-0.926818638,-0.082866788,0.340290682,0.0075159,-0.793802916,-0.248147927,0.555196405
128,-0.870605469,0.174804688,-0.393066406,0.178431793,0.468716352,1.411475377,1504,-55,-6055,-0.956298828,-0.052978516,-0.151611328,0.098004328,-0.104395915,0.071372717,-5425,841,-837,-0.141068319,-0.931657875,-0.056932225,0.329957657,0.006707056,-0.792604744,-0.245074944,0.558275028
129,-0.888183594,0.135498047,-0.40625,0.03355583,0.740358783,1.527589201,1504,-55,-6055,-0.975097656,-0.06640625,-0.143554688,0.419181556,-0.14168017,0.198671817,-5425,841,-837,-0.149399774,-0.937104857,-0.030718068,0.313959544,0.009463807,-0.791502575,-0.236428211,0.56350316
130,-0.87109375,0.093994141,-0.430419922,-0.319046699,1.326786855,1.110538174,1454,-173,-6239,-0.979980469,-0.10546875,-0.130615234,0.635962868,-0.090014845,0.31212248,-5416,829,-838,-0.160892707,-0.943924043,-0.016432269,0.287838356,0.014807248,-0.791300448,-0.223605735,0.568880323
131,-0.866699219,0.164306641,-0.420654297,-0.308394054,2.594984166,0.8596684,1454,-173,-6239,-0.965087891,-0.139892578,-0.135742188,0.443682638,-0.099069593,0.260989787,-5416,829,-838,-0.170329644,-0.956019327,-0.010878504,0.238529906,0.017819776,-0.790701444,-0.213867599,0.573353584
132,-0.853759766,0.161132813,-0.576660156,-0.621581798,2.223206878,-0.174170735,1443,-257,-6360,-0.981445313,-0.135742188,-0.13671875,0.165115988,-0.143278067,0.276968753,-5398,729,-1115,-0.180271903,-0.96295845,-0.025296394,0.198930031,0.016062509,-0.789711857,-0.207081021,0.577247459
133,-0.819824219,0.286621094,-0.479003906,-0.311057215,1.152083487,0.408528911,1443,-257,-6360,-0.978759766,-0.133056641,-0.120117188,-0.073503246,-0.082557994,0.309459319,-5398,729,-1115,-0.18754079,-0.96570638,-0.02332146,0.178032998,0.010452104,-0.789546435,-0.202531843,0.579213289
134,-0.873779297,0.162109375,-0.487060547,0.306796158,0.314785641,-0.037284255,1529,-271,-6387,-0.966308594,-0.118652344,-0.134033203,-0.234890808,-0.072970614,0.29294772,-5401,743,-777,-0.181055372,-0.967370046,-0.024776498,0.175500062,0.00252352,-0.78945888,-0.2001288,0.580255781
135,-0.853271484,0.159667969,-0.488769531,0.027696875,0.013848438,-0.259924522,1529,-271,-6387,-0.982666016,-0.126464844,-0.13671875,-0.210922358,-0.148071757,0.316383537,-5401,743,-777,-0.179340891,-0.96682193,-0.030376839,0.179358436,-0.005517231,-0.788531124,-0.197142692,0.582514365
136,-0.873046875,0.197509766,-0.464599609,-0.188551805,0.066579027,-0.381364668,1567,-290,-6526,-0.992919922,-0.135498047,-0.125,-0.281762443,-0.173638103,0.308394054,-5392,708,-790,-0.181558031,-0.965493459,-0.039246891,0.182534226,-0.014594263,-0.787158815,-0.195159899,0.584876586
137,-0.856933594,0.168212891,-0.466796875,-0.377636243,0.236488705,0.154463343,1567,-290,-6526,-0.969726563,-0.113037109,-0.125488281,-0.198139185,-0.076699039,0.070307453,-5392,708,-790,-0.189012843,-0.964481055,-0.039146936,0.180327361,-0.019249126,-0.785997635,-0.195938523,0.586042051
138,-0.833496094,0.174072266,-0.489257813,-0.364853069,0.936367439,0.110787501,1585,-274,-6513,-0.968505859,-0.096679688,-0.128417969,-0.076166407,-0.000532632,-0.049002164,-5363,690,-781,-0.195448845,-0.96584165,-0.042524,0.164746366,-0.020354745,-0.78532241,-0.197149099,0.586503734
139,-0.815429688,0.222167969,-0.499267578,-0.210922358,0.99655488,0.045273739,1585,-274,-6513,-0.984619141,-0.100341797,-0.122802734,0.139549641,0.010120012,-0.055393751,-5363,690,-781,-0.198789897,-0.967618395,-0.046865165,0.148326922,-0.017954547,-0.784814396,-0.195927036,0.587670481
140,-0.796875,0.172363281,-0.518554688,-0.189084437,1.046622308,-0.060187441,1610,-243,-6474,-0.984130859,-0.110839844,-0.11328125,0.404267853,0.139549641,-0.157659137,-5378,685,-772,-0.201000318,-0.969262981,-0.053437705,0.131425105,-0.009681063,-0.785459112,-0.193228038,0.587897258
141,-0.795898438,0.153076172,-0.550537109,-0.350471999,0.811198868,-0.241282395,1610,-243,-6474,-0.977783203,-0.119873047,-0.114013672,0.353135161,0.168844413,-0.166713884,-5378,685,-772,-0.20587777,-0.969195276,-0.06301563,0.119598876,-0.001985265,-0.786349505,-0.191256372,0.587427881
142,-0.832519531,0.238037109,-0.520751953,-0.395745738,0.637028133,-0.236488705,1671,-248,-6552,-0.970214844,-0.114501953,-0.122558594,0.269511902,0.132625422,-0.145941228,-5385,683,-725,-0.21225448,-0.968206834,-0.071871723,0.111166619,0.003966998,-0.786886954,-0.189893215,0.587140317
143,-0.788818359,0.250244141,-0.532958984,-0.111320134,0.369114127,-0.365918334,1671,-248,-6552,-0.973388672,-0.120849609,-0.119384766,0.214118152,0.094275903,-0.109189605,-5385,683,-725,-0.21321747,-0.967519916,-0.081432946,0.108683935,0.008474579,-0.787085886,-0.188592344,0.587245193
144,-0.787597656,0.220214844,-0.539550781,0.222640267,0.237021337,-0.503337446,1729,-210,-6546,-0.974121094,-0.113769531,-0.114501953,0.22583606,0.131027526,-0.124635939,-5384,681,-724,-0.207501911,-0.967648458,-0.092342633,0.109873823,0.013434583,-0.787631451,-0.187338467,0.586822382
145,-0.799560547,0.210205078,-0.532226563,0.218911842,0.056991647,-0.475107938,1729,-210,-6546,-0.985839844,-0.12109375,-0.112792969,0.274305592,0.115048559,-0.092678006,-5384,681,-724,-0.202231756,-0.967275261,-0.101910598,0.114433892,0.018728176,-0.788064213,-0.18500522,0.586836537
146,-0.800292969,0.218505859,-0.520751953,0.169377045,0.162985459,-0.487891112,1757,-184,-6509,-0.977294922,-0.123535156,-0.111572266,0.231162383,0.090014845,-0.055926383,-5377,681,-690,-0.197757132,-0.966770441,-0.112194164,0.116873869,0.022818947,-0.788336054,-0.182598448,0.587080376
147,-0.806640625,0.220214844,-0.520263672,0.199737082,0.062850602,-0.486825847,1757,-184,-6509,-0.978027344,-0.122802734,-0.108398438,0.262055051,-0.00479369,-0.06231797,-5377,681,-690,-0.192945411,-0.966024016,-0.121918828,0.121266108,0.027108708,-0.787445721,-0.179950681,0.588907553
148,-0.812988281,0.228515625,-0.519042969,0.279099282,0.179497057,-0.456465811,1776,-176,-6512,-0.983886719,-0.129150391,-0.108886719,0.224238164,0.169909678,-0.042077945,-5379,672,-667,-0.186461508,-0.965801079,-0.131230252,0.123446356,0.031205318,-0.788676203,-0.177331154,0.587851799
149,-0.807617188,0.23046875,-0.522460938,0.296676145,0.196008656,-0.350471999,1776,-176,-6512,-0.9765625,-0.131835938,-0.115478516,0.181094954,0.109722237,0.059654808,-5379,672,-667,-0.179884234,-0.965856306,-0.138429231,0.124902392,0.033229575,-0.789586359,-0.173666142,0.587613179
150,-0.802978516,0.229003906,-0.527099609,0.356330954,0.119309617,-0.22104237,1814,-174,-6587,-0.974853516,-0.125976563,-0.11328125,0.112385398,0.070840085,0.11291803,-5380,663,-642,-0.172703421,-0.966218573,-0.142626958,0.127486271,0.03339854,-0.790254973,-0.169986519,0.587780739
151,-0.803955078,0.229003906,-0.519775391,0.347808838,-0.220509738,-0.227966589,1814,-174,-6587,-0.974365234,-0.130371094,-0.116699219,0.108656972,0.02396845,0.074035878,-5380,663,-642,-0.166674897,-0.965573247,-0.145722929,0.136574561,0.033832507,-0.790244489,-0.167020865,0.588619606
152,-0.826904297,0.223876953,-0.510742188,0.296676145,-0.147006492,-0.234358176,1832,-174,-6580,-0.979980469,-0.133789063,-0.114990234,0.107591708,0.021305289,-0.006924219,-5369,603,-898,-0.161419052,-0.964826315,-0.149260114,0.144137055,0.035202904,-0.78992495,-0.165354052,0.589438179
153,-0.820556641,0.226074219,-0.510009766,0.234890808,-0.098004328,-0.241282395,1832,-174,-6580,-0.980957031,-0.129638672,-0.108398438,0.111320134,0.021837921,-0.035153726,-5369,603,-898,-0.157220475,-0.963930542,-0.153192632,0.150504651,0.036945643,-0.789502973,-0.164066884,0.590255989
154,-0.819580078,0.224853516,-0.513916016,0.178431793,-0.100134857,-0.18961707,1823,-196,-6650,-0.977050781,-0.132568359,-0.11328125,0.071372717,0.059654808,-0.009054748,-5373,634,-612,-0.154267446,-0.962963553,-0.156237684,0.156500917,0.037887008,-0.789653803,-0.16282283,0.590339031
155,-0.829345703,0.217041016,-0.511474609,0.154995975,-0.111852766,-0.104395915,1823,-196,-6650,-0.973388672,-0.126708984,-0.107421875,0.044208474,0.00958738,0.024501082,-5373,634,-612,-0.152039291,-0.962114847,-0.157648153,0.162376521,0.037825156,-0.789334518,-0.161393918,0.591161806
156,-0.828369141,0.218261719,-0.509521484,0.095873799,-0.105993811,-0.083090626,1823,-208,-6648,-0.986083984,-0.133300781,-0.110839844,0.062850602,0.061785337,0.026098979,-5375,628,-613,-0.151008597,-0.961146563,-0.158824349,0.167834781,0.038232229,-0.789622628,-0.159699956,0.591210898
157,-0.820068359,0.221679688,-0.51171875,0.018109495,-0.16085493,-0.076166407,1823,-208,-6648,-0.983154297,-0.134277344,-0.104003906,0.055926383,0.09374327,0.007456851,-5375,628,-613,-0.151668673,-0.959765133,-0.159933328,0.173979405,0.038861081,-0.790208627,-0.1583593,0.590747386
158,-0.821533203,0.223388672,-0.498535156,0.018642128,-0.274838225,-0.056991647,1810,-209,-6588,-0.975585938,-0.133300781,-0.114013672,0.001597897,0.091080109,0,-5371,580,-904,-0.152760192,-0.958000166,-0.160303434,0.182216398,0.03871156,-0.790806843,-0.157789898,0.590108719
159,-0.831787109,0.224365234,-0.490966797,-0.05273059,-0.09374327,-0.127831732,1810,-209,-6588,-0.977539063,-0.130615234,-0.112548828,-0.072437982,0.105461179,0.022903185,-5371,580,-904,-0.154386394,-0.95639757,-0.162828845,0.186963355,0.037162864,-0.79168967,-0.157718767,0.589042594
160,-0.822509766,0.236572266,-0.499511719,0.041545313,0.026631611,-0.175768632,1803,-207,-6625,-0.975830078,-0.133789063,-0.110595703,-0.113450662,0.066579027,0.038882152,-5377,626,-582,-0.153684792,-0.955371686,-0.166254306,0.189750971,0.034680138,-0.79217582,-0.157927741,0.588484143
161,-0.809814453,0.228759766,-0.509033203,0.086819052,0.020772657,-0.135821216,1803,-207,-6625,-0.971191406,-0.131835938,-0.112548828,-0.111320134,0.063383234,0.00479369,-5377,626,-582,-0.152240539,-0.954603339,-0.168709616,0.192593741,0.032624038,-0.792512077,-0.158660161,0.587951727
162,-0.813964844,0.228759766,-0.502929688,0.126233836,0.027164243,-0.063915866,1801,-187,-6617,-0.978759766,-0.124755859,-0.116210938,-0.124635939,0.100134857,0.020240024,-5373,606,-595,-0.150319352,-0.95420614,-0.169638386,0.195237172,0.030269063,-0.793335391,-0.159268362,0.586801781
163,-0.820800781,0.230712891,-0.505615234,0.080960097,0.045806371,-0.016511599,1801,-187,-6617,-0.973144531,-0.134033203,-0.117919922,-0.127831732,0.105461179,0.005326322,-5373,606,-595,-0.149390341,-0.953902258,-0.169878932,0.197216014,0.028103835,-0.794157221,-0.160185649,0.585546788
164,-0.829345703,0.229736328,-0.502929688,0.035153726,0.101732754,-0.014913702,1795,-194,-6614,-0.972900391,-0.126464844,-0.112548828,-0.193878127,0.077764304,-0.035153726,-5366,608,-592,-0.149154322,-0.953679365,-0.17043275,0.197993268,0.025248756,-0.794534029,-0.162514116,0.584523173
165,-0.826416016,0.228759766,-0.500488281,0.02876214,0.158191769,-0.017044231,1795,-194,-6614,-0.975341797,-0.127685547,-0.112060547,-0.251402407,0.098004328,-0.0479369,-5366,608,-592,-0.148844237,-0.953651644,-0.171217472,0.197682859,0.021703854,-0.79510287,-0.165713016,0.582991908
166,-0.823242188,0.234863281,-0.492919922,0.034088462,0.162985459,0.002130529,1793,-186,-6564,-0.973144531,-0.129882813,-0.111572266,-0.276968753,0.071372717,-0.031425301,-5368,620,-596,-0.148538323,-0.953715973,-0.171618623,0.197254296,0.017490986,-0.795390733,-0.168971825,0.581804237
167,-0.814453125,0.229736328,-0.4921875,0.051132693,0.200802346,0.050600061,1793,-186,-6564,-0.984619141,-0.123779297,-0.104492188,-0.280697179,0.086819052,-0.071905349,-5368,620,-596,-0.147949264,-0.954147156,-0.171143857,0.196020405,0.013714626,-0.79566794,-0.172885963,0.580374777
168,-0.831298828,0.232910156,-0.493164063,0.031425301,0.269511902,0.06231797,1793,-204,-6632,-0.9765625,-0.118896484,-0.120361328,-0.276436121,0.208259197,-0.060720073,-5371,621,-608,-0.147562251,-0.95480914,-0.170729909,0.193432639,0.010284729,-0.797388026,-0.17653791,0.576975672
169,-0.8203125,0.227050781,-0.498291016,-0.011717909,0.3025351,0.055393751,1793,-204,-6632,-0.988037109,-0.12109375,-0.110595703,-0.177899161,0.224770796,-0.044208474,-5371,621,-608,-0.147823045,-0.955443393,-0.170723033,0.19007871,0.008299583,-0.799254653,-0.178779247,0.573725629
170,-0.822753906,0.228515625,-0.497070313,-0.055926383,0.282827708,0.091612741,1795,-211,-6636,-0.978027344,-0.125,-0.121826172,-0.141147538,0.264718212,-0.004261058,-5370,637,-609,-0.149131253,-0.955974122,-0.170146423,0.186878416,0.006613338,-0.801699289,-0.179977723,0.569949588
171,-0.822021484,0.230224609,-0.502441406,-0.068709556,0.27377296,0.117179088,1795,-211,-6636,-0.963867188,-0.137695313,-0.134033203,-0.169909678,0.149669653,0,-5370,637,-609,-0.150792531,-0.956505541,-0.16911789,0.183733236,0.004071413,-0.802847403,-0.181506736,0.567868626
172,-0.821044922,0.227783203,-0.497314453,-0.053795854,0.243412924,0.097471696,1793,-213,-6606,-0.98046875,-0.146972656,-0.116210938,-0.276436121,0.106526444,-0.060720073,-5376,628,-633,-0.152186963,-0.956882934,-0.168339324,0.18131754,0.000382519,-0.803202568,-0.185230527,0.566175892
173,-0.821289063,0.226074219,-0.499267578,-0.086286419,0.285490869,0.039947416,1793,-213,-6606,-0.982421875,-0.128662109,-0.112304688,-0.371244656,0.153930711,-0.135821216,-5376,628,-633,-0.153833748,-0.957105409,-0.168925097,0.178181719,-0.003883144,-0.80376429,-0.191170602,0.563384139
174,-0.821777344,0.235595703,-0.500976563,-0.014913702,0.389354151,0.08894958,1804,-216,-6647,-0.974365234,-0.110839844,-0.126220703,-0.323840389,0.054861118,-0.126766468,-5370,642,-639,-0.153976332,-0.958052183,-0.168640765,0.173169273,-0.007934009,-0.803251103,-0.196381377,0.562280243
175,-0.822265625,0.229980469,-0.505859375,0.000532632,0.464455294,0.174170735,1804,-216,-6647,-0.974365234,-0.111328125,-0.114990234,-0.334493033,0.091080109,-0.018109495,-5370,642,-639,-0.153822332,-0.959548966,-0.166920479,0.166559377,-0.013217886,-0.803488265,-0.199971885,0.560573938
176,-0.822998047,0.201904297,-0.51171875,-0.113983295,0.555535403,0.325970917,1806,-236,-6667,-0.975097656,-0.114257813,-0.120117188,-0.327036182,0.090547477,-0.020240024,-5370,623,-914,-0.155890021,-0.961423363,-0.163003601,0.157458707,-0.018332449,-0.803674884,-0.203532725,0.55887837
177,-0.813964844,0.212890625,-0.516845703,-0.31691617,0.527305896,0.276968753,1806,-236,-6667,-0.977539063,-0.115966797,-0.136230469,-0.37710361,0.166713884,-0.027696875,-5370,623,-914,-0.161784145,-0.962295828,-0.160601788,0.148390348,-0.023834365,-0.804640571,-0.207821206,0.555693999
178,-0.802734375,0.253417969,-0.515380859,-0.071905349,0.219977106,0.19441076,1800,-228,-6642,-0.977783203,-0.110351563,-0.125976563,-0.363787805,0.08894958,-0.03355583,-5380,672,-671,-0.163869732,-0.962701088,-0.158048147,0.146198871,-0.029391583,-0.804641068,-0.212001565,0.553844944
179,-0.836181641,0.235351563,-0.504882813,0.145941228,0.096406431,0.120374881,1800,-228,-6642,-0.982666016,-0.114257813,-0.124023438,-0.231162383,0.086819052,-0.063915866,-5380,672,-671,-0.161881175,-0.963192532,-0.155910034,0.147467602,-0.032467412,-0.804517915,-0.215208487,0.552613879
180,-0.835693359,0.212402344,-0.502685547,0.120907513,-0.121440146,-0.034088462,1805,-248,-6680,-0.963378906,-0.104736328,-0.119873047,-0.214118152,0.00479369,-0.037284255,-5374,683,-692,-0.160503738,-0.962471976,-0.156113399,0.15334553,-0.035937624,-0.803598735,-0.217730551,0.552748558
181,-0.830078125,0.215576172,-0.510009766,0.026631611,-0.09374327,-0.033023198,1805,-248,-6680,-0.985595703,-0.101806641,-0.134033203,-0.1272991,0.046871635,-0.003728426,-5374,683,-692,-0.160849132,-0.96152575,-0.156646875,0.158295756,-0.038207288,-0.803373597,-0.218786347,0.552506652
182,-0.825927734,0.208007813,-0.491699219,-0.116646456,-0.102798018,0.049002164,1792,-259,-6681,-0.987792969,-0.120117188,-0.115234375,-0.109722237,0.12250541,0.039947416,-5374,649,-1003,-0.164203581,-0.960317258,-0.156037444,0.162727576,-0.040265448,-0.804106453,-0.219047603,0.551189308
183,-0.83203125,0.219726563,-0.487792969,-0.123570675,0.09853696,0.083090626,1792,-259,-6681,-0.974853516,-0.113769531,-0.122558594,-0.105993811,0.062850602,-0.105993811,-5374,649,-1003,-0.167212648,-0.959818326,-0.155463051,0.163156218,-0.040942387,-0.803567352,-0.221555134,0.550923365
184,-0.835449219,0.220458984,-0.502929688,-0.086819052,0.129962261,0.143810699,1772,-238,-6612,-0.985839844,-0.104980469,-0.121582031,-0.161920194,0.165115988,-0.10812434,-5378,688,-685,-0.169564112,-0.95973764,-0.153728134,0.162847584,-0.042090623,-0.804081041,-0.22475805,0.548785821
185,-0.837402344,0.213378906,-0.493164063,-0.035686359,0.017044231,0.109189605,1772,-238,-6612,-0.989013672,-0.117431641,-0.117919922,-0.144875963,0.335025665,-0.021305289,-5378,688,-685,-0.171138875,-0.959343176,-0.15212994,0.165011021,-0.043102635,-0.806790463,-0.226542397,0.543975969
186,-0.831298828,0.213378906,-0.487548828,-0.083090626,0.028229508,0.138484377,1764,-251,-6651,-0.9765625,-0.135986328,-0.123291016,-0.01917476,0.249271878,-0.141147538,-5380,700,-690,-0.173672742,-0.958903276,-0.1501759,0.166701787,-0.041104135,-0.808096551,-0.228854384,0.541217226
187,-0.811523438,0.219970703,-0.495117188,0.015978967,0.005858954,0.074568511,1764,-251,-6651,-0.96875,-0.122802734,-0.124023438,-0.061785337,0.143278067,-0.185356012,-5380,700,-690,-0.174169314,-0.958550284,-0.149027787,0.169225064,-0.039873171,-0.808017499,-0.232198272,0.540001679
188,-0.814208984,0.229736328,-0.500244141,0.101732754,-0.051665325,0.069774821,1746,-248,-6639,-0.970703125,-0.112304688,-0.130615234,-0.213052887,0.147006492,-0.027164243,-5381,699,-701,-0.17321162,-0.958281499,-0.147459455,0.173060718,-0.042812063,-0.808592267,-0.234597963,0.537874957
189,-0.831542969,0.224853516,-0.494140625,0.225303428,0.127831732,0.04314321,1746,-248,-6639,-0.985595703,-0.138916016,-0.121337891,-0.098004328,0.247673981,-0.045806371,-5381,699,-701,-0.169280839,-0.958950995,-0.146584329,0.17398282,-0.043119262,-0.810176017,-0.236197915,0.534757979
190,-0.823730469,0.221923828,-0.509033203,0.297208778,-0.017576863,0.090547477,1729,-243,-6585,-0.96875,-0.119384766,-0.136230469,-0.055393751,0.080427465,-0.131560158,-5377,704,-766,-0.164537324,-0.959493296,-0.144018335,0.177647974,-0.042689017,-0.809654541,-0.238543505,0.534541082
191,-0.833496094,0.217285156,-0.497802734,0.281762443,-0.173105471,0.14647386,1729,-243,-6585,-0.974365234,-0.100585938,-0.130371094,-0.082025362,0.050067428,-0.038882152,-5377,704,-766,-0.160741704,-0.95953425,-0.139888731,0.184084953,-0.043907179,-0.809225883,-0.239591213,0.534622932
192,-0.833496094,0.212402344,-0.489501953,0.128896997,-0.941693762,0.126233836,1714,-282,-6658,-0.970214844,-0.121337891,-0.135742188,-0.152332814,0.168311781,0.014913702,-5379,725,-698,-0.161868231,-0.955975556,-0.134176396,0.204709811,-0.046168532,-0.810231957,-0.240689639,0.532410688
193,-0.855957031,0.194580078,-0.479003906,0.091080109,-0.867657883,0.282295076,1714,-282,-6658,-0.982421875,-0.132080078,-0.123535156,-0.076166407,0.190682334,-0.216781313,-5379,725,-698,-0.163974194,-0.95261119,-0.125837008,0.223180267,-0.044615449,-0.810366656,-0.244739606,0.530488331
194,-0.829345703,0.215332031,-0.448730469,0.008522116,-0.735032461,0.238619234,1673,-306,-6633,-0.970703125,-0.093994141,-0.141601563,-0.159257033,0.035686359,-0.231695015,-5377,703,-875,-0.167183521,-0.949118954,-0.119049686,0.23885153,-0.045174381,-0.808780248,-0.249671531,0.530563768
195,-0.858886719,0.188232422,-0.437744141,0.408528911,-0.583764911,0.372842553,1673,-306,-6633,-0.985595703,-0.08203125,-0.129150391,-0.077231672,0.066046395,0.01917476,-5377,703,-875,-0.162909807,-0.947712996,-0.108311374,0.252129172,-0.046962675,-0.808802503,-0.249661491,0.530379258
196,-0.853759766,0.202148438,-0.463134766,0.370179391,-0.543817495,0.183758115,1597,-307,-6527,-0.972167969,-0.119384766,-0.135009766,-0.063915866,0.207193933,0.116646456,-5387,740,-710,-0.158325061,-0.945777036,-0.101387128,0.264876621,-0.048676735,-0.810775979,-0.248185809,0.527898372
197,-0.865478516,0.189941406,-0.4609375,0.358461483,-0.10333065,0.060720073,1597,-307,-6527,-0.979492188,-0.141845703,-0.130615234,0.01438107,0.210922358,-0.211454991,-5387,740,-710,-0.152382328,-0.94574343,-0.098213365,0.269635172,-0.045584313,-0.81118263,-0.251228557,0.526107426
198,-0.832519531,0.203369141,-0.455078125,0.309991951,-0.123570675,0.09853696,1546,-356,-6579,-0.969970703,-0.097900391,-0.138671875,-0.124103307,-0.022370553,-0.229031854,-5391,739,-716,-0.147693413,-0.945488625,-0.094449631,0.274439762,-0.045922236,-0.808978898,-0.255673889,0.527328317
199,-0.884765625,0.177246094,-0.454589844,0.352602528,-0.349939367,0.265250845,1546,-356,-6579,-0.970458984,-0.071533203,-0.137939453,-0.125701203,-0.035686359,0.076699039,-5391,739,-716,-0.143392165,-0.944321389,-0.08665655,0.28317211,-0.049660778,-0.808205882,-0.255123545,0.528440192
200,-0.869140625,0.1875,-0.449951172,0.282827708,-0.325970917,0.125701203,1516,-389,-6581,-0.972900391,-0.123046875,-0.149658203,-0.015446334,0.093210638,0.134755951,-5401,751,-706,-0.139635833,-0.942745079,-0.08190058,0.291591916,-0.051323582,-0.80915974,-0.252756828,0.527958703
201,-0.864501953,0.187988281,-0.449462891,0.200269714,-0.08894958,0.007456851,1516,-389,-6581,-0.985839844,-0.141845703,-0.123535156,0.045273739,0.17044231,-0.253532936,-5401,751,-706,-0.136379178,-0.942072673,-0.080481567,0.295672988,-0.047495119,-0.808930182,-0.256097078,0.527058309
202,-0.837890625,0.193359375,-0.452148438,0.013315805,-0.407996279,0.129429629,1488,-404,-6532,-0.978027344,-0.083984375,-0.156005859,-0.029294772,0.015446334,-0.154995975,-5402,707,-966,-0.137870222,-0.939188728,-0.076970247,0.304945759,-0.04694199,-0.807635478,-0.258345535,0.527995236
203,-0.875976563,0.164550781,-0.406738281,-0.002663161,-0.6050702,0.238086601,1488,-404,-6532,-0.966064453,-0.077880859,-0.140136719,-0.066046395,-0.076699039,0.16085493,-5402,707,-966,-0.140477347,-0.935023373,-0.071035695,0.3177284,-0.050783509,-0.806927317,-0.255791535,0.529962292
204,-0.896484375,0.179199219,-0.420410156,0.058589544,-0.011185277,0.045806371,1447,-423,-6570,-0.990722656,-0.154541016,-0.126464844,-0.438888948,0.43942158,0.183225483,-5412,760,-681,-0.139915003,-0.934432937,-0.069949442,0.319946798,-0.057897343,-0.811189658,-0.257533114,0.521819827
205,-0.873535156,0.180908203,-0.432861328,0.042077945,0.283892972,-0.077764304,1447,-423,-6570,-0.978759766,-0.154052734,-0.131835938,-0.544350127,0.345145677,-0.415985762,-5412,760,-681,-0.138477565,-0.9355237,-0.072081699,0.316896828,-0.060982062,-0.811105485,-0.269927137,0.515294499
206,-0.826171875,0.178466797,-0.4375,-0.116113823,0.234890808,-0.05752428,1421,-434,-6545,-0.962158203,-0.064941406,-0.149414063,-0.496945859,-0.116646456,-0.427171039,-5404,743,-707,-0.140186918,-0.935917121,-0.074689678,0.314369564,-0.066041695,-0.806255969,-0.281187118,0.516259248
207,-0.862304688,0.161865234,-0.392333984,-0.294545617,0.127831732,0.10333065,1421,-434,-6545,-0.958496094,-0.041992188,-0.142822266,-0.320644595,-0.035686359,0.021837921,-5404,743,-707,-0.146334358,-0.935257961,-0.075182044,0.313411011,-0.072492221,-0.80491216,-0.283427069,0.516265812
208,-0.908203125,0.198486328,-0.385253906,-0.666855537,1.280447852,0.233292911,1429,-412,-6495,-0.973632813,-0.092041016,-0.138183594,-0.04314321,0.020772657,0.247673981,-5417,756,-1032,-0.15858665,-0.94044996,-0.078962967,0.290118936,-0.076229686,-0.805721578,-0.279396016,0.516662018
209,-0.858154297,0.1640625,-0.424316406,-0.309459319,1.429584873,0.110254869,1429,-412,-6495,-1.002929688,-0.145263672,-0.124023438,-0.010120012,0.077764304,0.055926383,-5417,756,-1032,-0.162834332,-0.946784958,-0.083515562,0.264779861,-0.076931898,-0.805990641,-0.278315846,0.51672126
210,-0.815429688,0.201171875,-0.475830078,0.068176924,0.917725312,0.407996279,1457,-417,-6547,-0.976318359,-0.102783203,-0.138916016,-0.119842249,0.090014845,-0.228499222,-5422,797,-721,-0.162353884,-0.951692577,-0.078686305,0.248457082,-0.076575531,-0.804710821,-0.28287039,0.516295482
211,-0.890869141,0.173828125,-0.497070313,0.324373021,0.903344242,0.280164547,1457,-417,-6547,-0.971923828,-0.060546875,-0.136962891,0.072970614,-0.078829568,-0.178964425,-5422,797,-721,-0.156208529,-0.956806004,-0.075013288,0.23343987,-0.074772524,-0.802308343,-0.284251195,0.519530221
212,-0.908203125,0.17578125,-0.480712891,-0.345678309,0.58110175,0.266316109,1493,-429,-6611,-0.973632813,-0.057861328,-0.128173828,0.198671817,-0.058056912,0.162985459,-5431,790,-712,-0.163255933,-0.958040248,-0.073746042,0.223758585,-0.074373129,-0.802222827,-0.278860099,0.522632011
213,-0.853515625,0.186035156,-0.466064453,-0.453270018,0.017576863,0.014913702,1493,-429,-6611,-0.970703125,-0.123535156,-0.127197266,0.339819355,0.14168017,0.085753787,-5431,790,-712,-0.172074178,-0.955938501,-0.075951453,0.225396177,-0.069506672,-0.803901302,-0.273678428,0.52346121
214,-0.818115234,0.201904297,-0.457519531,-0.556068036,-0.301469835,-0.159789665,1509,-439,-6670,-0.976806641,-0.108154297,-0.139404297,0.231695015,0.04314321,-0.163518091,-5426,788,-682,-0.182557888,-0.95166804,-0.080863869,0.233370078,-0.064403372,-0.80306357,-0.273426269,0.525527529
215,-0.843994141,0.19921875,-0.435546875,-0.486825847,-0.723847184,-0.150202285,1509,-439,-6670,-0.991943359,-0.091064453,-0.1328125,0.265783477,-0.056991647,-0.078296936,-5426,788,-682,-0.192339465,-0.945411996,-0.083764673,0.249369541,-0.060289241,-0.801679928,-0.271235039,0.529250465
216,-0.923583984,0.183349609,-0.402099609,-0.183225483,-0.67484502,-0.352069896,1499,-379,-6520,-0.976806641,-0.079101563,-0.120849609,0.279099282,-0.029294772,0.061252705,-5423,769,-657,-0.195191452,-0.939841821,-0.089191513,0.26578661,-0.05733092,-0.801336517,-0.266648543,0.532420423
217,-0.884277344,0.202880859,-0.447753906,0.041545313,-0.932106382,-0.515055355,1499,-379,-6520,-0.968505859,-0.099609375,-0.125488281,0.076166407,0.074568511,0.066046395,-5423,769,-657,-0.19334951,-0.933216739,-0.095343616,0.287457962,-0.057020616,-0.801869469,-0.264320995,0.532811801
218,-0.838378906,0.20703125,-0.424316406,0.136353848,-1.561677663,-0.485760583,1458,-330,-6448,-1.000732422,-0.107421875,-0.121582031,0.068176924,0.202400243,-0.079894833,-5428,752,-627,-0.191001509,-0.922678231,-0.097791127,0.320343879,-0.054610229,-0.802946792,-0.26455347,0.531324415
219,-0.883789063,0.215576172,-0.374267578,0.439954212,-0.580036485,-0.598678613,1458,-330,-6448,-0.967529297,-0.105712891,-0.137207031,0.149669653,0.051665325,-0.09374327,-5428,752,-627,-0.18046389,-0.918536603,-0.103955875,0.336030459,-0.051537633,-0.802488724,-0.263982573,0.532605784
220,-0.906982422,0.202636719,-0.370849609,0.846885227,0.118776985,-0.789360947,1416,-295,-6336,-0.97265625,-0.101806641,-0.133056641,0.228499222,-0.071905349,0.022370553,-5422,750,-625,-0.1597471,-0.919701013,-0.113240281,0.340305082,-0.049106013,-0.801405429,-0.260557373,0.536141579
221,-0.881835938,0.222167969,-0.414550781,1.064199172,0.46818372,-0.952346406,1416,-295,-6336,-0.971191406,-0.109619141,-0.127685547,0.270577167,-0.160322298,0.165115988,-5422,750,-625,-0.133277333,-0.922996585,-0.124846148,0.338715067,-0.047934979,-0.800125946,-0.254325244,0.541127877
222,-0.860839844,0.220703125,-0.414550781,1.179780363,0.266316109,-0.826645202,1437,-280,-6313,-0.975097656,-0.119873047,-0.128662109,0.341417252,-0.314253009,0.176833896,-5432,737,-596,-0.106129488,-0.924795192,-0.132514629,0.340485326,-0.04647166,-0.797268408,-0.247014609,0.548805297
223,-0.861572266,0.222412109,-0.429443359,1.429052241,0.323307756,-0.896952655,1437,-280,-6313,-0.990478516,-0.126953125,-0.096435547,0.313720376,-0.270044535,0.094808535,-5432,737,-596,-0.073885234,-0.926467829,-0.139571128,0.341640504,-0.044308462,-0.794328901,-0.241324836,0.555734362
224,-0.880126953,0.213378906,-0.417480469,1.189367743,-0.010120012,-0.841558904,1513,-329,-6507,-0.977294922,-0.134521484,-0.119873047,0.080427465,-0.067644292,-0.114515927,-5437,719,-548,-0.047480692,-0.924788087,-0.146431683,0.347951636,-0.042514561,-0.792459774,-0.241749708,0.558352127
225,-0.897216797,0.206787109,-0.393066406,0.529969057,-0.011185277,-0.759533543,1513,-329,-6507,-0.987304688,-0.121582031,-0.116210938,-0.260989787,0.082025362,-0.257261361,-5437,719,-548,-0.033918745,-0.922190867,-0.156140226,0.352184261,-0.043898429,-0.791258872,-0.248302073,0.557071276
226,-0.905029297,0.211425781,-0.3984375,0.034088462,0.665790273,-0.469781616,1561,-385,-6639,-0.988525391,-0.088378906,-0.108398438,-0.154463343,0.11291803,-0.226368693,-5432,666,-795,-0.029485213,-0.924677638,-0.164354636,0.342183345,-0.043944281,-0.790628501,-0.253082993,0.555809745
227,-0.839355469,0.237792969,-0.431152344,0.095341167,0.896420023,-0.176833896,1561,-385,-6639,-0.961669922,-0.077880859,-0.119873047,-0.251935039,-0.087351684,0.107059076,-5432,666,-795,-0.025328606,-0.929593248,-0.166800765,0.327707735,-0.050239714,-0.789396235,-0.253512059,0.556831385
228,-0.810302734,0.248291016,-0.463623047,0.068176924,0.983771707,0.083623258,1606,-378,-6683,-0.961181641,-0.090087891,-0.121337891,-0.259924522,-0.229564486,0.229564486,-5440,728,-511,-0.023139687,-0.935680893,-0.16461655,0.311234981,-0.058634428,-0.787143324,-0.252025575,0.559866503
229,-0.804443359,0.234375,-0.461181641,-0.030360036,0.529436425,0.488423744,1606,-378,-6683,-0.971923828,-0.097412109,-0.104248047,-0.205063404,-0.258326626,0.145941228,-5440,728,-511,-0.026700486,-0.939945498,-0.15531115,0.302767223,-0.06531223,-0.784111941,-0.251232092,0.563724412
230,-0.87109375,0.212158203,-0.411865234,0.241815027,0.479368996,0.659398686,1649,-366,-6644,-1.002685547,-0.110595703,-0.103271484,-0.218911842,-0.053263222,-0.031957933,-5441,710,-495,-0.026208586,-0.944214571,-0.141161039,0.296387442,-0.069120157,-0.782427592,-0.253677368,0.564515067
231,-0.893310547,0.225830078,-0.429931641,0.387223623,1.04928547,0.569916473,1649,-366,-6644,-0.989501953,-0.104003906,-0.097167969,-0.162985459,0.137419112,-0.180562322,-5441,710,-495,-0.020882413,-0.951269143,-0.128111325,0.279711334,-0.069446884,-0.782186321,-0.258042138,0.562828522
232,-0.879394531,0.209472656,-0.488525391,0.389886784,0.755805117,0.560329093,1644,-402,-6598,-0.976074219,-0.069335938,-0.112548828,-0.170974942,0.087351684,-0.105993811,-5445,682,-802,-0.016092221,-0.95627838,-0.115123973,0.268363877,-0.071126333,-0.781815401,-0.261177166,0.561686934
233,-0.839355469,0.206298828,-0.504150391,-0.207726565,0.289751927,0.67484502,1644,-402,-6598,-0.982666016,-0.082519531,-0.1015625,-0.085221155,0.11291803,0.093210638,-5445,682,-802,-0.024331142,-0.958609056,-0.103042758,0.264308272,-0.073501728,-0.782826294,-0.260308099,0.560375038
234,-0.835205078,0.195556641,-0.455810547,-0.388821519,-0.118244352,0.638093397,1662,-531,-6903,-0.983886719,-0.112792969,-0.09375,-0.096406431,0.232760279,0.053795854,-5446,735,-486,-0.036574893,-0.958325811,-0.092492971,0.267803972,-0.074859839,-0.784873288,-0.260437499,0.557263165
235,-0.858886719,0.180175781,-0.420410156,-0.260457155,0.138484377,0.353135161,1662,-531,-6903,-0.977539063,-0.110351563,-0.108642578,-0.23062975,0.201867611,-0.10333065,-5446,735,-486,-0.044245998,-0.958744697,-0.086978241,0.26699379,-0.076742374,-0.785563941,-0.264481249,0.554120538
236,-0.867675781,0.180419922,-0.442382813,-0.109722237,0.549676449,0.071905349,1625,-557,-6945,-0.996826172,-0.123046875,-0.105224609,-0.114515927,0.21624868,-0.117179088,-5430,728,-503,-0.046780598,-0.960918919,-0.086456765,0.258788784,-0.076541869,-0.786459523,-0.267483221,0.551430402
237,-0.851074219,0.198242188,-0.477783203,-0.093210638,0.730771403,0.02396845,1625,-557,-6945,-0.968994141,-0.111328125,-0.112548828,-0.174703368,0.171507574,-0.09853696,-5430,728,-503,-0.048490226,-0.963873079,-0.086946203,0.24705818,-0.077767212,-0.786878624,-0.270762476,0.549055528
238,-0.840332031,0.196044922,-0.500732422,-0.120374881,0.625842856,0.037284255,1634,-550,-6937,-0.972900391,-0.078613281,-0.130371094,-0.086819052,-0.079894833,0.071905349,-5440,740,-510,-0.050925473,-0.96618588,-0.087244353,0.237233776,-0.080943945,-0.78567098,-0.269949096,0.550723774
239,-0.831787109,0.188232422,-0.488769531,-0.112385398,0.497478492,0.0793622,1634,-550,-6937,-0.987792969,-0.100097656,-0.109130859,0.039414784,0.003728426,0.288686662,-5440,740,-510,-0.053588345,-0.967861589,-0.086597666,0.229941466,-0.083957785,-0.786650019,-0.264538807,0.551499825
240,-0.84765625,0.185791016,-0.459716797,-0.118776985,0.713727172,-0.002130529,1666,-545,-6921,-0.972167969,-0.118652344,-0.109375,0.00479369,0.028229508,0.196541288,-5437,737,-492,-0.055636444,-0.97022121,-0.087817811,0.218777105,-0.086258408,-0.787311393,-0.261079444,0.551849419
241,-0.877197266,0.183105469,-0.4453125,-0.050600061,1.022121226,-0.211454991,1666,-545,-6921,-0.985595703,-0.114501953,-0.105957031,-0.036751623,0.045273739,0.054861118,-5437,737,-492,-0.054921228,-0.973352812,-0.093155936,0.202212597,-0.087580411,-0.787332437,-0.260329071,0.551965651
242,-0.818115234,0.182861328,-0.513427734,-0.06231797,1.206944606,-0.382962565,1690,-552,-6980,-0.983886719,-0.106689453,-0.108398438,-0.125701203,0.096939064,0.05752428,-5431,718,-502,-0.053362836,-0.976548016,-0.102060914,0.181906432,-0.090081318,-0.787782844,-0.260602431,0.550790268
243,-0.850585938,0.189208984,-0.4765625,-0.174170735,0.063915866,-0.120374881,1690,-552,-6980,-0.974853516,-0.106933594,-0.100097656,-0.144343331,0.068709556,0.061785337,-5431,718,-502,-0.057288998,-0.975700419,-0.105022551,0.183567226,-0.093055041,-0.787875756,-0.260974098,0.54998643
244,-0.838378906,0.196777344,-0.497802734,0.016511599,0.651409203,-0.137419112,1760,-539,-7057,-0.977294922,-0.109863281,-0.096923828,-0.214118152,0.08415589,0.017576863,-5425,703,-514,-0.05622854,-0.97713256,-0.108289067,0.174137271,-0.096541942,-0.787746551,-0.262852138,0.548674566
245,-0.839355469,0.200195313,-0.485107422,-0.030360036,0.015446334,0.14647386,1760,-539,-7057,-0.981933594,-0.111083984,-0.102294922,-0.251935039,0.139017009,0.016511599,-5425,703,-514,-0.058440846,-0.976845811,-0.105462822,0.176732912,-0.100305414,-0.788119881,-0.265281133,0.546289115
246,-0.833251953,0.185058594,-0.476074219,-0.116646456,0.071905349,0.28336034,1785,-544,-7066,-0.977050781,-0.112548828,-0.112304688,-0.199737082,0.185888644,0.009054748,-5427,700,-503,-0.062595142,-0.976911822,-0.100371882,0.177906225,-0.102890548,-0.789058519,-0.267369267,0.543427882
247,-0.836425781,0.181396484,-0.490478516,-0.220509738,0.461259501,0.188019173,1785,-544,-7066,-0.974121094,-0.120849609,-0.107910156,-0.161387562,0.141147538,-0.048469532,-5427,700,-503,-0.06759051,-0.977980681,-0.098046307,0.171383291,-0.104452189,-0.789239815,-0.269872337,0.541626418
248,-0.80859375,0.2265625,-0.510742188,-0.128896997,0.384027829,0.066579027,1765,-543,-7061,-0.980712891,-0.119140625,-0.100097656,-0.196008656,0.087884316,-0.097471696,-5425,698,-531,-0.070723974,-0.978633776,-0.097667163,0.166538818,-0.106337804,-0.788472678,-0.273390792,0.540611304
249,-0.829589844,0.198242188,-0.512695313,-0.111852766,0.050600061,0.115048559,1765,-543,-7061,-0.982666016,-0.108886719,-0.106201172,-0.252467671,0.107059076,-0.097471696,-5425,698,-531,-0.074148526,-0.978265536,-0.095870331,0.168248083,-0.109046884,-0.787793646,-0.277530179,0.538949857
250,-0.829101563,0.199707031,-0.502929688,-0.24980451,0.096939064,0.070840085,1774,-543,-7054,-0.977294922,-0.107177734,-0.108642578,-0.188019173,0.060720073,-0.068709556,-5429,703,-532,-0.080015254,-0.97773216,-0.095501417,0.168869364,-0.111304504,-0.786905151,-0.280417556,0.538291357
251,-0.836914063,0.1953125,-0.490722656,-0.227433957,0.023435818,0.045273739,1774,-543,-7054,-0.979736328,-0.100341797,-0.11328125,-0.145408596,-0.005858954,-0.034088462,-5429,703,-532,-0.085449334,-0.976894536,-0.095480792,0.171052319,-0.113653995,-0.785601623,-0.28214249,0.538802816
252,-0.833984375,0.201660156,-0.491455078,-0.271109799,0.107059076,0.028229508,1769,-528,-7033,-0.974365234,-0.095214844,-0.115234375,-0.056991647,0.067111659,0.006391587,-5429,676,-813,-0.091506839,-0.976202907,-0.096115429,0.171511538,-0.114648029,-0.785517936,-0.28243955,0.538558542
253,-0.840087891,0.2109375,-0.490722656,-0.262055051,0.225303428,0.064981131,1769,-528,-7033,-0.981445313,-0.095703125,-0.116455078,0.012250541,0.0479369,0.107591708,-5429,676,-813,-0.097287222,-0.975960129,-0.09625327,0.169624088,-0.115735511,-0.785953912,-0.280371359,0.538770491
254,-0.841064453,0.213867188,-0.485595703,-0.217846577,0.192280231,0.135288583,1759,-507,-6989,-0.983886719,-0.111816406,-0.118896484,-0.011185277,0.046871635,0.191214966,-5427,718,-533,-0.102483104,-0.975786684,-0.094845933,0.168350262,-0.11800396,-0.786768226,-0.277305108,0.538676805
255,-0.845703125,0.206054688,-0.485839844,-0.164583355,0.173105471,0.158724401,1759,-507,-6989,-0.979492188,-0.120117188,-0.112792969,0.027696875,0.001065264,0.135288583,-5427,718,-533,-0.106677664,-0.97567486,-0.092810181,0.167525261,-0.11926283,-0.786839082,-0.274627461,0.539666928
256,-0.836181641,0.208251953,-0.487548828,-0.128364365,0.167779149,0.077231672,1750,-490,-6959,-0.982421875,-0.115722656,-0.112548828,-0.050067428,0.079894833,0.047404267,-5420,696,-528,-0.10989308,-0.975459052,-0.092255376,0.167009262,-0.120379413,-0.787086823,-0.274353554,0.539196862
257,-0.844238281,0.204345703,-0.480224609,-0.100667489,0.167779149,0.037816887,1750,-490,-6959,-0.982421875,-0.111572266,-0.113769531,-0.134223319,0.072970614,0.074568511,-5420,696,-528,-0.112410457,-0.975213942,-0.092405291,0.16668209,-0.123153349,-0.787202649,-0.274545994,0.538302647
258,-0.838378906,0.207275391,-0.482177734,-0.054328486,0.072437982,0.05273059,1740,-479,-6921,-0.978271484,-0.112792969,-0.114746094,-0.196541288,0.09853696,0.098004328,-5418,644,-843,-0.114245221,-0.974783153,-0.091905144,0.168223892,-0.126991988,-0.787548004,-0.275125663,0.536606975
259,-0.852050781,0.192138672,-0.475097656,-0.09853696,0.096939064,0.110787501,1740,-479,-6921,-0.978271484,-0.115966797,-0.112548828,-0.211987623,0.10812434,0.09853696,-5418,644,-843,-0.116999312,-0.974427152,-0.090515667,0.169144317,-0.130994833,-0.787921815,-0.275909906,0.534689902
260,-0.840087891,0.206787109,-0.486816406,-0.133158055,0.075633775,0.161920194,1745,-482,-6943,-0.978515625,-0.122314453,-0.110351563,-0.18002969,0.08894958,0.079894833,-5411,683,-549,-0.120662342,-0.974010353,-0.088202443,0.170190367,-0.134358726,-0.788035697,-0.27662525,0.533315989
261,-0.837158203,0.192871094,-0.484619141,-0.158191769,0.025566346,0.262055051,1745,-482,-6943,-0.978759766,-0.122314453,-0.108642578,-0.147006492,0.100134857,0.021837921,-5411,683,-549,-0.125129171,-0.973517895,-0.083949784,0.171924498,-0.136515483,-0.788015558,-0.277938627,0.532113825
262,-0.844726563,0.189208984,-0.463623047,-0.13688648,0.054861118,0.225303428,1724,-480,-6926,-0.981933594,-0.121826172,-0.101806641,-0.208791829,0.113450662,-0.00479369,-5403,679,-548,-0.128986269,-0.973065816,-0.080453453,0.173299455,-0.139293495,-0.787784411,-0.280359772,0.530463421
263,-0.84375,0.197509766,-0.474121094,-0.164050723,0.319579331,0.099602225,1724,-480,-6926,-0.973144531,-0.118408203,-0.111816406,-0.229564486,0.121972778,-0.024501082,-5403,679,-548,-0.132519909,-0.973233804,-0.080200736,0.169771253,-0.142133907,-0.787481801,-0.283339473,0.528572708
264,-0.824707031,0.211914063,-0.493652344,-0.169377045,0.333427768,0.01438107,1705,-483,-6910,-0.976318359,-0.118896484,-0.110839844,-0.267381373,0.087351684,-0.036751623,-5401,685,-554,-0.135869696,-0.973288337,-0.081665845,0.166072057,-0.14562885,-0.786607469,-0.286812302,0.527048035
265,-0.823730469,0.203613281,-0.488525391,-0.172040206,0.157659137,0.048469532,1705,-483,-6910,-0.976806641,-0.114990234,-0.119628906,-0.279099282,0.109189605,-0.040480049,-5401,685,-554,-0.139605976,-0.9727882,-0.082035455,0.165721074,-0.149140853,-0.785902369,-0.290526841,0.525079638
266,-0.839111328,0.203857422,-0.482666016,-0.133158055,0.134223319,0.030892669,1716,-480,-6905,-0.977294922,-0.11328125,-0.112060547,-0.241815027,0.066046395,-0.018109495,-5404,682,-557,-0.142552818,-0.972268524,-0.082582007,0.165990435,-0.152554991,-0.784942345,-0.293360244,0.523958259
267,-0.845458984,0.197021484,-0.480712891,-0.13688648,0.224770796,0.017576863,1716,-480,-6905,-0.981445313,-0.110839844,-0.111816406,-0.214650784,0.090014845,-0.012783173,-5404,682,-557,-0.145330166,-0.972004126,-0.083689421,0.164569752,-0.155460634,-0.784326825,-0.295893085,0.522599948
268,-0.837890625,0.208984375,-0.482910156,-0.117179088,0.228499222,0.016511599,1709,-463,-6876,-0.976074219,-0.108886719,-0.116455078,-0.172040206,0.082025362,-0.007456851,-5403,691,-575,-0.147754164,-0.971796984,-0.084767711,0.163075945,-0.157791711,-0.783790799,-0.297877022,0.521577452
269,-0.839111328,0.207275391,-0.475097656,-0.115581191,0.148604389,0.018642128,1709,-463,-6876,-0.980957031,-0.111083984,-0.110595703,-0.12250541,0.084688523,0.029294772,-5403,691,-575,-0.150275558,-0.971324564,-0.085584822,0.163159695,-0.159704608,-0.783628334,-0.298781497,0.520721316
270,-0.844726563,0.206054688,-0.476074219,-0.120374881,0.234358176,0.022903185,1710,-462,-6860,-0.974609375,-0.113525391,-0.115722656,-0.091612741,0.091080109,0.041012681,-5399,684,-576,-0.152733015,-0.971114479,-0.086615128,0.16157696,-0.161189223,-0.783704133,-0.299222009,0.519896197
271,-0.846679688,0.209960938,-0.476074219,-0.143278067,0.307861422,0.051665325,1710,-462,-6860,-0.978759766,-0.115722656,-0.104980469,-0.025566346,0.096406431,0.010652644,-5399,684,-576,-0.155599565,-0.971102207,-0.087405981,0.158459688,-0.161297245,-0.783832143,-0.299463958,0.519530277
272,-0.843994141,0.208251953,-0.474853516,-0.133158055,0.280697179,0.092678006,1705,-448,-6861,-0.979248047,-0.115966797,-0.117675781,-0.042610577,0.126766468,0.014913702,-5397,686,-576,-0.15841695,-0.971088932,-0.087311404,0.15577893,-0.16151961,-0.784271632,-0.299925592,0.518530675
273,-0.840087891,0.208007813,-0.479003906,-0.157126504,0.28336034,0.121972778,1705,-448,-6861,-0.979736328,-0.124267578,-0.106445313,-0.047404267,0.111320134,-0.002130529,-5397,686,-576,-0.161750833,-0.971045352,-0.086758379,0.152907079,-0.161714809,-0.784392097,-0.300663022,0.517860121
274,-0.841552734,0.20703125,-0.477294922,-0.166713884,0.323307756,0.119309617,1709,-442,-6848,-0.977539063,-0.124511719,-0.104248047,-0.118776985,0.100134857,-0.036218991,-5394,680,-584,-0.165166475,-0.971061091,-0.086449704,0.149287783,-0.162747211,-0.783950459,-0.302633643,0.517056961
275,-0.844238281,0.199462891,-0.474121094,-0.200269714,0.436758419,0.056459015,1709,-442,-6848,-0.976318359,-0.122558594,-0.110351563,-0.115581191,0.049534796,-0.02876214,-5394,680,-584,-0.168797833,-0.971153854,-0.087879432,0.143682596,-0.164109869,-0.783056334,-0.304290538,0.517008702
276,-0.835205078,0.210693359,-0.483154297,-0.121972778,0.356330954,0.030360036,1713,-443,-6836,-0.98046875,-0.122802734,-0.108398438,-0.14168017,0.071372717,0.013848438,-5393,641,-828,-0.170993636,-0.971201939,-0.089327379,0.139816268,-0.166185025,-0.782548292,-0.305623357,0.516328453
277,-0.833496094,0.208740234,-0.492919922,-0.097471696,0.344613045,0.030360036,1713,-443,-6836,-0.979248047,-0.114746094,-0.111083984,-0.10812434,0.084688523,-0.00958738,-5393,641,-828,-0.172692188,-0.971288108,-0.090684165,0.136210139,-0.167437739,-0.782154046,-0.307004822,0.515701165
278,-0.830078125,0.210205078,-0.495361328,-0.014913702,0.229031854,0.023435818,1729,-422,-6844,-0.977539063,-0.113525391,-0.112060547,-0.10333065,0.074035878,-0.02876214,-5397,687,-586,-0.172974789,-0.971323541,-0.091555962,0.135010396,-0.168485536,-0.781548679,-0.308598691,0.51532624
279,-0.842041016,0.210205078,-0.488525391,0.030360036,0.183758115,0.004261058,1729,-422,-6844,-0.982910156,-0.111083984,-0.108398438,-0.114515927,0.084688523,-0.006391587,-5397,687,-586,-0.172426567,-0.971345303,-0.092525818,0.134893866,-0.169887205,-0.781139954,-0.309983317,0.514654304
280,-0.839599609,0.203857422,-0.489990234,0.068176924,0.218379209,-0.03355583,1735,-435,-6850,-0.977783203,-0.116455078,-0.109130859,-0.111320134,0.104928547,-0.011717909,-5398,671,-570,-0.170958087,-0.971521019,-0.094242363,0.134307924,-0.171031291,-0.780906867,-0.311503648,0.513710268
281,-0.837646484,0.205566406,-0.491455078,0.035153726,0.24021713,-0.027696875,1735,-435,-6850,-0.974121094,-0.113037109,-0.114746094,-0.071372717,0.08894958,-0.013315805,-5398,671,-570,-0.170118792,-0.971647707,-0.095995605,0.133211013,-0.17163841,-0.780650378,-0.31258136,0.513242766
282,-0.833496094,0.211914063,-0.486083984,0.020772657,0.212520255,-0.011185277,1745,-427,-6869,-0.982421875,-0.117431641,-0.107666016,-0.038882152,0.096939064,-0.019707392,-5390,647,-891,-0.169700568,-0.971672546,-0.097359786,0.132571692,-0.171621694,-0.780521746,-0.313450518,0.512913805
283,-0.838867188,0.205322266,-0.487548828,0.001065264,0.257261361,0.040480049,1745,-427,-6869,-0.977294922,-0.119873047,-0.110107422,-0.033023198,0.102265386,-0.021837921,-5390,647,-891,-0.16967835,-0.971847764,-0.097932897,0.13088288,-0.171445791,-0.780457321,-0.314317094,0.512540218
284,-0.835205078,0.203857422,-0.494140625,-0.013315805,0.248206614,0.076699039,1739,-430,-6848,-0.971435547,-0.1171875,-0.114257813,-0.072970614,0.063383234,-0.009054748,-5389,683,-594,-0.170023016,-0.972024411,-0.097811945,0.129203487,-0.17226966,-0.779952028,-0.315259363,0.512454419
285,-0.834716797,0.206787109,-0.490234375,-0.02396845,0.240749763,0.086819052,1739,-430,-6848,-0.979980469,-0.121582031,-0.115234375,-0.061785337,0.080960097,-0.004261058,-5389,683,-594,-0.170632623,-0.97215591,-0.09750174,0.127635438,-0.172842982,-0.77969009,-0.316081475,0.512153463
286,-0.837402344,0.200195313,-0.488769531,-0.037284255,0.235956073,0.095341167,1735,-442,-6881,-0.979003906,-0.124511719,-0.114013672,-0.0793622,0.041545313,0.004261058,-5394,680,-577,-0.171495825,-0.972243211,-0.097060899,0.126140803,-0.174011778,-0.779012494,-0.316824198,0.512329838
287,-0.829589844,0.205810547,-0.488769531,-0.028229508,0.314785641,0.077231672,1735,-442,-6881,-0.980712891,-0.114501953,-0.112548828,-0.082557994,0.068709556,-0.01917476,-5394,680,-577,-0.172011418,-0.972514606,-0.097221028,0.123188815,-0.174861845,-0.778458261,-0.31803144,0.51213482
288,-0.835449219,0.202636719,-0.489746094,-0.038882152,0.266316109,0.105461179,1741,-447,-6885,-0.980957031,-0.115966797,-0.113037109,-0.084688523,0.059122176,-0.012783173,-5392,679,-581,-0.172870568,-0.97267633,-0.096707172,0.121096022,-0.175862941,-0.77783776,-0.31913234,0.512049993
289,-0.838134766,0.199951172,-0.492675781,-0.017576863,0.26418558,0.094808535,1741,-447,-6885,-0.982666016,-0.123291016,-0.112548828,-0.091080109,0.0793622,0.009054748,-5392,679,-581,-0.173271645,-0.972881629,-0.096353277,0.119139916,-0.177026084,-0.777528338,-0.320050192,0.511546013
290,-0.836181641,0.200927734,-0.497558594,-0.011717909,0.257261361,0.082025362,1750,-455,-6884,-0.978027344,-0.124023438,-0.113037109,-0.114515927,0.097471696,-0.013848438,-5403,673,-625,-0.173535112,-0.973064215,-0.096213009,0.117365474,-0.178196495,-0.777169604,-0.321632095,0.510691894
291,-0.840087891,0.203613281,-0.487548828,-0.00958738,0.23542344,0.045806371,1750,-455,-6884,-0.979492188,-0.116699219,-0.114257813,-0.136353848,0.072437982,0.006391587,-5403,673,-625,-0.173748658,-0.973117961,-0.096702525,0.11619578,-0.180096639,-0.776611216,-0.323018652,0.509999186
292,-0.836914063,0.202880859,-0.499511719,0.030892669,0.174170735,0.064448498,1749,-458,-6899,-0.977783203,-0.115478516,-0.110839844,-0.101732754,0.059654808,0.039414784,-5393,666,-575,-0.173307742,-0.973216439,-0.096517462,0.116183339,-0.181876582,-0.776247281,-0.323495423,0.50961925
293,-0.832763672,0.201416016,-0.495117188,-0.030360036,0.153930711,0.053795854,1749,-458,-6899,-0.976074219,-0.115966797,-0.115478516,-0.079894833,0.050067428,0.042077945,-5393,666,-575,-0.174070432,-0.973034356,-0.096614087,0.116487531,-0.183388609,-0.775890213,-0.323688483,0.509498539
294,-0.8359375,0.192871094,-0.494384766,-0.064981131,0.158724401,0.071372717,1743,-458,-6905,-0.978515625,-0.114501953,-0.105712891,-0.070307453,0.063915866,0.044208474,-5397,643,-752,-0.175486946,-0.972780227,-0.096484492,0.116592043,-0.184697545,-0.775696147,-0.323794521,0.509253781
295,-0.833740234,0.192626953,-0.494140625,-0.090014845,0.201334978,0.043675842,1743,-458,-6905,-0.976806641,-0.116455078,-0.114501953,-0.044208474,0.054328486,0.051665325,-5397,643,-752,-0.1772339,-0.97248183,-0.097114027,0.115914195,-0.185710919,-0.775567428,-0.323506104,0.509264587
296,-0.834960938,0.198242188,-0.495849609,-0.1272991,0.238619234,0.013848438,1738,-466,-6908,-0.981689453,-0.116943359,-0.112060547,-0.049002164,0.011185277,0.048469532,-5397,664,-570,-0.179575897,-0.972070319,-0.098553682,0.114538049,-0.187040843,-0.774955313,-0.323161527,0.509928047
297,-0.836181641,0.195556641,-0.493896484,-0.181094954,0.242347659,-0.006391587,1738,-466,-6908,-0.979980469,-0.114990234,-0.108398438,-0.073503246,0.066579027,0.069242188,-5397,664,-570,-0.182879415,-0.971421212,-0.100549422,0.113074147,-0.188606583,-0.774938269,-0.322953732,0.509508708
298,-0.843505859,0.202636719,-0.488769531,-0.152865447,0.283892972,-0.034088462,1741,-449,-6886,-0.974853516,-0.117431641,-0.112060547,-0.069242188,0.083090626,0.054328486,-5397,655,-570,-0.185517941,-0.970883646,-0.103192084,0.11099294,-0.189822955,-0.775010583,-0.323015548,0.508907455
299,-0.83203125,0.206054688,-0.494384766,-0.188019173,0.169909678,-0.074568511,1741,-449,-6886,-0.981689453,-0.113525391,-0.115478516,-0.022370553,0.086819052,0.020240024,-5397,655,-570,-0.188962569,-0.969868901,-0.106285213,0.111134678,-0.189956689,-0.775087317,-0.323135082,0.508664748
300,-0.837402344,0.198974609,-0.489013672,-0.19920445,0.258326626,-0.060720073,1746,-446,-6872,-0.973144531,-0.115478516,-0.114013672,-0.034621094,0.126233836,0.03355583,-5385,657,-580,-0.192420331,-0.969013111,-0.109503742,0.109530534,-0.190149429,-0.77559375,-0.32332985,0.507696108
301,-0.834716797,0.208007813,-0.485107422,-0.19441076,0.347276206,-0.056991647,1746,-446,-6872,-0.981445313,-0.1171875,-0.113769531,-0.021837921,0.102265386,0.042610577,-5385,657,-580,-0.195628307,-0.96833952,-0.112998832,0.106204539,-0.190387076,-0.775955648,-0.323165895,0.507158158
302,-0.834960938,0.212158203,-0.493896484,-0.115581191,0.177899161,-0.080960097,1757,-422,-6867,-0.972167969,-0.126708984,-0.115722656,-0.002130529,0.100134857,0.037816887,-5385,610,-818,-0.19762141,-0.96754411,-0.116135751,0.106379792,-0.190236135,-0.776333483,-0.322899536,0.506806102
303,-0.827880859,0.209472656,-0.491455078,-0.099069593,0.228499222,-0.052197957,1757,-422,-6867,-0.977294922,-0.125,-0.106689453,0.017044231,0.117179088,0.015978967,-5385,610,-818,-0.199218038,-0.966978606,-0.118892035,0.105495182,-0.189483194,-0.77679097,-0.3228232,0.506435673
304,-0.826660156,0.209472656,-0.494384766,-0.071905349,0.218911842,-0.086286419,1767,-409,-6850,-0.977539063,-0.125976563,-0.116210938,0,0.096406431,0.016511599,-5388,639,-571,-0.20022795,-0.966411648,-0.122216144,0.10497861,-0.189119605,-0.776998439,-0.322841126,0.506241848
305,-0.830810547,0.207763672,-0.494384766,-0.047404267,0.22583606,-0.080427465,1767,-409,-6850,-0.9765625,-0.132080078,-0.109375,-0.031425301,0.100134857,0.026098979,-5388,639,-571,-0.200748062,-0.965959938,-0.125408477,0.104375898,-0.189301615,-0.777160893,-0.323051015,0.505790359
306,-0.829101563,0.215820313,-0.491699219,-0.067111659,0.185356012,-0.063915866,1775,-394,-6845,-0.975097656,-0.133544922,-0.107666016,-0.077231672,0.091612741,0.023435818,-5378,632,-564,-0.201819813,-0.965371072,-0.128154432,0.104421727,-0.190217352,-0.777037498,-0.323737671,0.505196998
307,-0.834716797,0.211181641,-0.490722656,-0.111852766,0.256196097,-0.061252705,1775,-394,-6845,-0.9765625,-0.122558594,-0.117431641,-0.068176924,0.044208474,0.044208474,-5378,632,-564,-0.203550523,-0.964744669,-0.131244409,0.103003953,-0.191532748,-0.776638638,-0.323817664,0.505262063
308,-0.831542969,0.217773438,-0.495117188,-0.042610577,0.237553969,-0.037284255,1780,-385,-6818,-0.982910156,-0.127197266,-0.110839844,0.008522116,0.04314321,0.087351684,-5376,572,-869,-0.204057342,-0.964414262,-0.133650223,0.101996815,-0.192083814,-0.776778519,-0.322460936,0.505705335
309,-0.831298828,0.222900391,-0.494628906,-0.051665325,0.257261361,-0.014913702,1780,-385,-6818,-0.979492188,-0.133544922,-0.107177734,0.020240024,0.086819052,0.027164243,-5376,572,-869,-0.204751889,-0.964135399,-0.135722884,0.100493256,-0.191542587,-0.777000225,-0.322101871,0.505798845
310,-0.823730469,0.213623047,-0.499511719,-0.03355583,0.282295076,-0.026098979,1795,-375,-6836,-0.978759766,-0.133056641,-0.112792969,-0.013315805,0.082025362,-0.029827404,-5377,610,-557,-0.204950091,-0.963953803,-0.138084838,0.098595658,-0.190978711,-0.77669416,-0.322946497,0.505943549
311,-0.821289063,0.219238281,-0.5,-0.030892669,0.190682334,-0.035686359,1795,-375,-6836,-0.979492188,-0.133789063,-0.110595703,-0.089482213,0.092145374,-0.055926383,-5377,610,-557,-0.205351392,-0.963567667,-0.140243576,0.098488048,-0.191276401,-0.776023482,-0.324995977,0.505547732
312,-0.826904297,0.223632813,-0.498046875,-0.037816887,-0.125701203,-0.023435818,1802,-381,-6843,-0.974121094,-0.125488281,-0.109619141,-0.150202285,0.105993811,-0.06231797,-5368,599,-556,-0.206798443,-0.96254755,-0.140872011,0.104363284,-0.192396716,-0.775218343,-0.327783244,0.5045574
313,-0.846923828,0.21875,-0.483154297,-0.037816887,-0.276436121,0.027164243,1802,-381,-6843,-0.975097656,-0.129882813,-0.112548828,-0.207193933,0.091080109,-0.090547477,-5368,599,-556,-0.208754229,-0.961294791,-0.139909891,0.112956714,-0.194194479,-0.773848718,-0.331529299,0.503522582
314,-0.833007813,0.219970703,-0.48828125,-0.067111659,-0.368048863,0.100134857,1793,-373,-6841,-0.978515625,-0.123046875,-0.106445313,-0.239151866,0.123038042,-0.14647386,-5377,606,-551,-0.211632239,-0.959850464,-0.137207275,0.122772333,-0.195756956,-0.772275696,-0.336541999,0.502004927
315,-0.829101563,0.219970703,-0.488525391,-0.047404267,-0.372842553,0.188551805,1793,-373,-6841,-0.979736328,-0.115722656,-0.116210938,-0.227966589,0.123570675,-0.15606124,-5377,606,-551,-0.214303941,-0.958627269,-0.132728251,0.132252755,-0.197067135,-0.770693745,-0.341560716,0.50053169
316,-0.837890625,0.224609375,-0.480957031,-0.027696875,-0.261522419,0.232227647,1751,-380,-6788,-0.976074219,-0.114746094,-0.114257813,-0.192280231,0.156593872,-0.105461179,-5382,625,-566,-0.216414609,-0.957800805,-0.127834552,0.139429772,-0.19811432,-0.769899718,-0.345551052,0.498597644
317,-0.836181641,0.222412109,-0.484863281,-0.005858954,-0.212520255,0.15606124,1751,-380,-6788,-0.9765625,-0.117431641,-0.117675781,-0.151800182,0.133690687,-0.051132693,-5382,625,-566,-0.217725409,-0.956961584,-0.1245469,0.14597343,-0.199220732,-0.769401042,-0.348211447,0.497073359
318,-0.833496094,0.218994141,-0.482910156,-0.01917476,-0.05752428,0.030892669,1719,-391,-6743,-0.976074219,-0.126220703,-0.118896484,-0.077764304,0.10333065,0.001597897,-5391,642,-559,-0.218523743,-0.956176296,-0.124366437,0.150024177,-0.19988189,-0.769248032,-0.349225925,0.496332499
319,-0.831298828,0.215820313,-0.480224609,-0.00479369,-0.041012681,-0.063383234,1719,-391,-6743,-0.975830078,-0.118652344,-0.109863281,-0.036218991,0.115048559,0.010120012,-5391,642,-559,-0.218714572,-0.9552571,-0.12601136,0.154171805,-0.199950912,-0.769418603,-0.349714217,0.495696089
320,-0.839599609,0.219482422,-0.468994141,-0.011717909,0.036751623,-0.072437982,1699,-377,-6731,-0.975585938,-0.121826172,-0.120605469,-0.027164243,0.074035878,0.024501082,-5383,647,-569,-0.218857132,-0.954494753,-0.128182874,0.156877258,-0.200278286,-0.769341822,-0.349748587,0.495658849
321,-0.854003906,0.214599609,-0.463867188,0.000532632,0.189084437,-0.100134857,1699,-377,-6731,-0.977783203,-0.124267578,-0.114501953,0.021837921,0.074035878,0.027164243,-5383,647,-569,-0.21828945,-0.954170615,-0.13151552,0.156881551,-0.199878351,-0.769462683,-0.349255434,0.495980309
322,-0.839111328,0.209228516,-0.472167969,-0.03355583,0.215183416,-0.15126755,1693,-374,-6715,-0.975585938,-0.119384766,-0.114990234,-0.060187441,0.049002164,-0.027164243,-5387,640,-549,-0.218103948,-0.953649057,-0.136030624,0.156460261,-0.200397473,-0.76863794,-0.350297987,0.496314306
323,-0.854736328,0.205322266,-0.462646484,-0.103863282,0.130494893,-0.174703368,1693,-374,-6715,-0.977050781,-0.124755859,-0.116699219,-0.068709556,0.017044231,-0.005858954,-5387,640,-549,-0.219413264,-0.952457609,-0.140849455,0.157619014,-0.201455156,-0.767612781,-0.350986299,0.496985973
324,-0.867919922,0.215576172,-0.453369141,-0.00958738,0.096939064,-0.237021337,1694,-349,-6712,-0.981201172,-0.123779297,-0.113525391,-0.09853696,0.062850602,-0.013315805,-5387,638,-554,-0.218898251,-0.951349605,-0.146388502,0.159962157,-0.202585234,-0.766861336,-0.35226286,0.496783446
325,-0.863525391,0.218505859,-0.455078125,0.023435818,0.305198261,-0.198671817,1694,-349,-6712,-0.981933594,-0.116210938,-0.110839844,-0.06231797,0.060187441,-0.018109495,-5387,638,-554,-0.217289244,-0.95112835,-0.151975611,0.158251889,-0.203164883,-0.766198246,-0.353219824,0.496890364
326,-0.84765625,0.229248047,-0.451904297,0.03834952,0.218379209,-0.074035878,1708,-335,-6683,-0.974365234,-0.121337891,-0.115478516,-0.064448498,0.077764304,-0.051665325,-5387,603,-824,-0.216107438,-0.95105349,-0.154730099,0.157649708,-0.203292142,-0.765471416,-0.354798653,0.496833707
327,-0.852294922,0.21875,-0.456542969,0.106526444,0.286023501,-0.0793622,1708,-335,-6683,-0.978515625,-0.118164063,-0.112548828,-0.083090626,0.060720073,-0.06231797,-5387,603,-824,-0.213365272,-0.951459993,-0.157657912,0.156022837,-0.20374368,-0.764421053,-0.35663673,0.496949906
328,-0.844970703,0.2265625,-0.461425781,0.111852766,0.33609093,-0.070307453,1718,-327,-6716,-0.977050781,-0.118408203,-0.105712891,-0.074568511,0.071372717,-0.090547477,-5384,640,-541,-0.210437007,-0.952052484,-0.160571546,0.153392023,-0.203724336,-0.76329408,-0.358847925,0.497098289
329,-0.833007813,0.224609375,-0.471923828,0.139549641,0.125168571,-0.044208474,1718,-327,-6716,-0.982666016,-0.1171875,-0.103027344,-0.132625422,0.062850602,-0.121440146,-5384,640,-541,-0.207713565,-0.952202367,-0.16198325,0.154684045,-0.204365548,-0.76161725,-0.3620505,0.497084824
330,-0.840087891,0.229736328,-0.470947266,0.086819052,0.096939064,-0.052197957,1729,-342,-6715,-0.98046875,-0.120361328,-0.106933594,-0.166181252,0.08894958,-0.036218991,-5390,653,-535,-0.206098815,-0.952007144,-0.163565997,0.156370846,-0.20615063,-0.760675046,-0.364403825,0.496069798
331,-0.829101563,0.217041016,-0.483642578,0.03834952,0.093210638,-0.027696875,1729,-342,-6715,-0.979736328,-0.126708984,-0.114746094,-0.164050723,0.052197957,-0.005858954,-5390,653,-535,-0.205409445,-0.951703721,-0.164812954,0.157808994,-0.208425042,-0.759601308,-0.366150536,0.495478193
332,-0.835693359,0.229248047,-0.477539063,0.044208474,0.034088462,-0.00479369,1732,-348,-6734,-0.968017578,-0.117675781,-0.107421875,-0.193345495,0.027696875,-0.021837921,-5393,611,-841,-0.204946222,-0.951297802,-0.165339701,0.160288245,-0.211196129,-0.758031771,-0.368305841,0.495110933
333,-0.837646484,0.225097656,-0.469726563,0.041545313,0.049534796,-0.010652644,1732,-348,-6734,-0.980224609,-0.111083984,-0.113037109,-0.209857094,0.029827404,-0.051665325,-5393,611,-841,-0.204465846,-0.950901588,-0.166045815,0.162507462,-0.213924014,-0.756202909,-0.371070267,0.494672147
334,-0.845703125,0.219726563,-0.456054688,0.098004328,0.12250541,0.006924219,1726,-354,-6723,-0.984863281,-0.119384766,-0.112548828,-0.192812863,0.058589544,0.007456851,-5389,652,-538,-0.202745943,-0.951010624,-0.166531071,0.163524548,-0.216722757,-0.755143114,-0.372917149,0.493683021
335,-0.845214844,0.225341797,-0.463134766,0.064448498,0.185888644,0.05273059,1726,-354,-6723,-0.977539063,-0.11328125,-0.113037109,-0.180562322,0.063383234,0.017044231,-5389,652,-538,-0.201619172,-0.951345385,-0.166493061,0.16300837,-0.219401827,-0.75425099,-0.374513783,0.492653742
336,-0.848876953,0.227783203,-0.462158203,0.14168017,0.186953909,0.147539124,1716,-358,-6745,-0.974121094,-0.108642578,-0.108154297,-0.060187441,0.050067428,-0.005858954,-5409,657,-545,-0.199349087,-0.952298118,-0.164393143,0.162367271,-0.220158578,-0.75357479,-0.375198191,0.492830147
337,-0.821044922,0.20703125,-0.495605469,-0.064448498,0.02396845,0.327036182,1716,-358,-6745,-0.980957031,-0.108642578,-0.111572266,0.01917476,0.055393751,0.030892669,-5409,657,-545,-0.201906421,-0.95253237,-0.15891248,0.163287186,-0.220035784,-0.753584635,-0.374573899,0.493344551
338,-0.853515625,0.2109375,-0.468994141,-0.19441076,0.011185277,0.314253009,1725,-383,-6753,-0.978027344,-0.111816406,-0.110839844,0.124635939,0.094808535,0.059654808,-5394,662,-536,-0.206971517,-0.952073527,-0.154090778,0.16424014,-0.218298002,-0.754654014,-0.372655054,0.493934724
339,-0.856201172,0.226318359,-0.456542969,-0.134755951,0.09374327,0.311589848,1725,-383,-6753,-0.981445313,-0.1328125,-0.110595703,0.107591708,0.08415589,0.00958738,-5394,662,-536,-0.210697816,-0.952060871,-0.149483757,0.163832641,-0.216329059,-0.755143462,-0.371653429,0.49480685
340,-0.840576172,0.216308594,-0.462402344,-0.145941228,0.173105471,0.339819355,1695,-378,-6762,-0.979736328,-0.129150391,-0.103027344,-0.003195793,0.077764304,-0.026098979,-5392,648,-528,-0.214392837,-0.952325672,-0.14475041,0.161736963,-0.215760474,-0.754812692,-0.372232572,0.495124359
341,-0.862304688,0.214599609,-0.456298828,-0.049534796,0.247141349,0.257793994,1695,-378,-6762,-0.975585938,-0.119628906,-0.109375,-0.0479369,0.051665325,-0.043675842,-5392,648,-528,-0.215767021,-0.95295306,-0.141622865,0.158959183,-0.215916152,-0.753931118,-0.373387117,0.495530166
342,-0.85546875,0.211914063,-0.469482422,-0.018642128,0.080427465,0.167779149,1680,-399,-6734,-0.98046875,-0.116699219,-0.110107422,0.017044231,0.045273739,0.015446334,-5391,645,-523,-0.216683545,-0.952937184,-0.139400685,0.159769877,-0.215735586,-0.753715856,-0.372970549,0.496249469
343,-0.848632813,0.202148438,-0.461914063,0.01438107,-0.007989483,0.067111659,1680,-399,-6734,-0.976318359,-0.134521484,-0.105957031,0.059122176,0.044208474,0.038882152,-5391,645,-523,-0.216864883,-0.952498156,-0.138618148,0.162794026,-0.215091999,-0.75381838,-0.371820717,0.497234992
344,-0.8515625,0.200439453,-0.451904297,0.085753787,-0.091080109,-0.01917476,1665,-402,-6736,-0.974121094,-0.132324219,-0.107910156,-0.089482213,0.018642128,0.010120012,-5392,636,-505,-0.215656095,-0.951836451,-0.138874674,0.167969176,-0.216593655,-0.752822996,-0.372472116,0.497603505
345,-0.852783203,0.200683594,-0.467773438,0.085221155,0.067644292,-0.027696875,1665,-402,-6736,-0.974609375,-0.127685547,-0.105224609,-0.135288583,-0.059654808,0.013848438,-5392,636,-505,-0.213965907,-0.951684343,-0.139955335,0.170082353,-0.219413852,-0.750879281,-0.37317871,0.498774014
346,-0.843994141,0.208251953,-0.459228516,0.095873799,-0.292415088,0.035686359,1649,-420,-6741,-0.976806641,-0.118896484,-0.107421875,-0.126766468,-0.013848438,0.033023198,-5393,631,-507,-0.213327361,-0.950498224,-0.138214136,0.178721616,-0.221972805,-0.749583764,-0.37370287,0.499197777
347,-0.863037109,0.209472656,-0.44921875,-0.061785337,-0.34088462,0.152332814,1649,-420,-6741,-0.979248047,-0.112304688,-0.109619141,-0.136353848,-0.011185277,0.05273059,-5393,631,-507,-0.216213126,-0.948703004,-0.134609656,0.187335885,-0.224859002,-0.748427466,-0.374036889,0.499390792
348,-0.852050781,0.208740234,-0.444580078,-0.068709556,-0.249271878,0.145941228,1631,-415,-6718,-0.979980469,-0.113769531,-0.111572266,-0.083623258,-0.025566346,0.071372717,-5394,641,-495,-0.218924781,-0.947142267,-0.131547856,0.194135593,-0.227222654,-0.747503719,-0.373520877,0.500090202
349,-0.881103516,0.220947266,-0.424316406,-0.002130529,-0.000532632,0.051132693,1631,-415,-6718,-0.980957031,-0.115966797,-0.111816406,-0.015978967,0.003195793,0.042077945,-5394,641,-495,-0.219450927,-0.946511252,-0.131111793,0.196894486,-0.228050334,-0.746954334,-0.372910439,0.500989094
350,-0.874267578,0.220947266,-0.427246094,0.128364365,0.111852766,-0.06231797,1600,-411,-6680,-0.979248047,-0.116943359,-0.112304688,0.054861118,0.061252705,-0.017044231,-5395,628,-490,-0.216783707,-0.946594668,-0.132780337,0.198324837,-0.226794588,-0.746871603,-0.372736714,0.501811086
351,-0.873535156,0.208496094,-0.436035156,0.121972778,0.474042674,-0.090547477,1600,-411,-6680,-0.985595703,-0.117431641,-0.107421875,0.101732754,0.064448498,-0.041545313,-5395,628,-490,-0.2131229,-0.947979937,-0.13656617,0.19303458,-0.2245889,-0.746841763,-0.372452556,0.503056955
352,-0.853515625,0.201660156,-0.447021484,-0.030892669,0.526773264,-0.005858954,1589,-428,-6689,-0.976318359,-0.122802734,-0.1015625,-0.014913702,0.096406431,-0.073503246,-5392,586,-739,-0.212483611,-0.949105818,-0.13954599,0.185945634,-0.223561429,-0.746352069,-0.373956549,0.503125607
353,-0.850830078,0.203857422,-0.454589844,-0.135821216,0.551274346,0.031425301,1589,-428,-6689,-0.974853516,-0.118408203,-0.108154297,-0.096406431,0.05752428,-0.065513763,-5392,586,-739,-0.21388174,-0.949912124,-0.142311985,0.177957457,-0.224131258,-0.745189953,-0.375975683,0.503089851
354,-0.848388672,0.205078125,-0.459960938,-0.239684498,0.554470139,0.051665325,1613,-427,-6705,-0.979003906,-0.118408203,-0.09765625,-0.087884316,0.069242188,-0.035153726,-5397,618,-470,-0.217274523,-0.95025902,-0.14509251,0.169551586,-0.224811536,-0.744383968,-0.377490423,0.502845167
355,-0.853759766,0.204589844,-0.462646484,-0.09853696,0.648213409,0.015978967,1613,-427,-6705,-0.980957031,-0.119873047,-0.099365234,-0.13209279,0.075633775,-0.060187441,-5397,618,-470,-0.217571295,-0.951322308,-0.148493171,0.159994925,-0.225845768,-0.743253589,-0.379849684,0.502276826
356,-0.842041016,0.216308594,-0.470458984,-0.126766468,0.431432097,-0.013315805,1637,-414,-6718,-0.984130859,-0.129150391,-0.100097656,-0.130494893,0.083090626,-0.105461179,-5393,633,-451,-0.218965575,-0.951414431,-0.151579889,0.15455806,-0.22631707,-0.741847032,-0.382909084,0.501820882
357,-0.845214844,0.221679688,-0.461181641,0.0479369,0.205063404,-0.110787501,1637,-414,-6718,-0.98046875,-0.122558594,-0.100830078,-0.214650784,0.087884316,-0.11771172,-5393,633,-451,-0.217474227,-0.951234002,-0.154976349,0.154405848,-0.227903404,-0.740012766,-0.38698652,0.500682113
358,-0.836914063,0.214355469,-0.462158203,0.102798018,0.151800182,-0.110787501,1658,-403,-6719,-0.976318359,-0.121582031,-0.096923828,-0.207726565,0.110787501,-0.089482213,-5386,590,-764,-0.215081727,-0.951123931,-0.15795254,0.155415935,-0.229499638,-0.738631099,-0.390661591,0.499136792
359,-0.85546875,0.219238281,-0.458251953,0.127831732,0.299339307,-0.157659137,1658,-403,-6719,-0.979003906,-0.122070313,-0.10546875,-0.248739246,0.077231672,-0.059122176,-5386,590,-764,-0.211666043,-0.951387691,-0.162347395,0.153955419,-0.232244856,-0.736964223,-0.394146577,0.497588722
360,-0.847412109,0.213378906,-0.459228516,0.197073921,0.191214966,-0.120374881,1665,-418,-6753,-0.982666016,-0.121582031,-0.100341797,-0.263652948,0.099069593,-0.05752428,-5403,649,-459,-0.207389821,-0.951711848,-0.165325118,0.154601509,-0.235059514,-0.735420803,-0.39784014,0.495607194
361,-0.845458984,0.217529297,-0.458496094,0.201334978,0.293480352,-0.10333065,1665,-418,-6753,-0.979003906,-0.119140625,-0.102539063,-0.245543452,0.072437982,-0.055393751,-5403,649,-459,-0.202799713,-0.952391464,-0.168341223,0.153244929,-0.237834723,-0.733702313,-0.401189363,0.494128178
362,-0.852294922,0.213378906,-0.458984375,0.145941228,0.285490869,0.006924219,1682,-421,-6783,-0.979003906,-0.113037109,-0.098388672,-0.237553969,0.058589544,-0.010120012,-5413,657,-466,-0.199623906,-0.953166633,-0.169372171,0.15144878,-0.241067326,-0.732225654,-0.403709176,0.492697714
363,-0.854736328,0.201904297,-0.467773438,0.079894833,0.39148468,0.068176924,1682,-421,-6783,-0.980712891,-0.118896484,-0.106689453,-0.218911842,0.077231672,-0.003728426,-5413,657,-466,-0.197473918,-0.954193046,-0.169857034,0.147201461,-0.243891301,-0.731065968,-0.406066939,0.491089833
364,-0.8359375,0.206542969,-0.477050781,0.004261058,0.307861422,0.144875963,1691,-441,-6798,-0.983886719,-0.1171875,-0.106689453,-0.213052887,0.045806371,-0.012250541,-5412,662,-481,-0.197267335,-0.954929497,-0.168755048,0.143933973,-0.246797957,-0.729543972,-0.408334672,0.490019547
365,-0.843017578,0.208984375,-0.473632813,-0.047404267,0.222640267,0.184290747,1691,-441,-6798,-0.983642578,-0.116210938,-0.101806641,-0.177899161,0.090547477,-0.021305289,-5412,662,-481,-0.19845382,-0.955328741,-0.166724744,0.142006823,-0.248744135,-0.728534264,-0.410600396,0.488642503
366,-0.850585938,0.205810547,-0.464355469,-0.083623258,0.116113823,0.196541288,1697,-443,-6848,-0.978271484,-0.113037109,-0.103027344,-0.172572839,0.078829568,0.001065264,-5403,669,-469,-0.200706927,-0.955301814,-0.164166541,0.142001831,-0.250925454,-0.727615299,-0.412427309,0.487356244
367,-0.856201172,0.199707031,-0.467285156,-0.045806371,0.161387562,0.184290747,1697,-443,-6848,-0.98046875,-0.111572266,-0.106933594,-0.153930711,0.094808535,0.001065264,-5403,669,-469,-0.202007965,-0.955507484,-0.161942344,0.141325538,-0.252697553,-0.72694412,-0.41415417,0.485975839
368,-0.855712891,0.200927734,-0.468017578,-0.107591708,0.131027526,0.163518091,1679,-456,-6818,-0.981445313,-0.112060547,-0.104248047,-0.128896997,0.081492729,0.005858954,-5409,669,-477,-0.204513581,-0.955303348,-0.160183128,0.141106603,-0.254260529,-0.726293567,-0.415499828,0.484983639
369,-0.8515625,0.196289063,-0.462402344,-0.144343331,0.111320134,0.137951744,1679,-456,-6818,-0.975341797,-0.109130859,-0.104736328,-0.094275903,0.087884316,0.005326322,-5409,669,-477,-0.207678725,-0.954800958,-0.158963444,0.141263232,-0.255265501,-0.725875928,-0.416547141,0.484181929
370,-0.851318359,0.200439453,-0.462402344,-0.161920194,0.113983295,0.109189605,1672,-453,-6812,-0.979248047,-0.107666016,-0.106201172,-0.044741106,0.100134857,0.018109495,-5410,668,-485,-0.211083979,-0.954129574,-0.158373309,0.141415008,-0.255576843,-0.725936378,-0.416989145,0.483546177
371,-0.854736328,0.197753906,-0.462402344,-0.16564862,0.118776985,0.073503246,1672,-453,-6812,-0.976806641,-0.117431641,-0.104492188,-0.075633775,0.084688523,0.02396845,-5410,668,-485,-0.21440873,-0.953333012,-0.158523516,0.141616946,-0.256484024,-0.725717509,-0.417590571,0.482874889
372,-0.849121094,0.197753906,-0.460205078,-0.143810699,0.152332814,0.02396845,1656,-454,-6812,-0.979492188,-0.113525391,-0.103515625,-0.066579027,0.075101143,0.022370553,-5408,674,-482,-0.217058274,-0.95255895,-0.159718131,0.141447062,-0.257339518,-0.725438769,-0.418069566,0.482423882
373,-0.8515625,0.200683594,-0.463623047,-0.107059076,0.145408596,0.001597897,1656,-454,-6812,-0.974365234,-0.116943359,-0.101074219,-0.088416948,0.075101143,0.046871635,-5408,674,-482,-0.218959308,-0.951848414,-0.161214988,0.141602065,-0.258729657,-0.725237077,-0.418416972,0.481681829
374,-0.853515625,0.205078125,-0.462890625,-0.107059076,0.121972778,-0.046871635,1660,-439,-6783,-0.979736328,-0.114990234,-0.108154297,-0.096939064,0.078829568,0.026098979,-5414,664,-496,-0.2208103,-0.950905932,-0.163535287,0.142397084,-0.260005216,-0.724866688,-0.419173417,0.480894187
375,-0.854003906,0.208984375,-0.455078125,-0.085221155,0.148071757,-0.031425301,1660,-439,-6783,-0.975830078,-0.117675781,-0.110107422,-0.092145374,0.074568511,0.034088462,-5414,664,-496,-0.222231128,-0.950167446,-0.165618778,0.142707993,-0.261301347,-0.724543041,-0.419761361,0.480166
376,-0.851318359,0.211181641,-0.456542969,-0.03834952,0.168311781,-0.042077945,1655,-429,-6766,-0.974853516,-0.121826172,-0.101074219,-0.109189605,0.086819052,0.023435818,-5396,617,-735,-0.222667865,-0.949656252,-0.167858073,0.142813485,-0.262636624,-0.724124782,-0.420732936,0.479217174
377,-0.851318359,0.203125,-0.457763672,-0.050600061,0.118244352,-0.020240024,1655,-429,-6766,-0.981201172,-0.120605469,-0.104003906,-0.133690687,0.101732754,0.005326322,-5396,617,-735,-0.223519298,-0.949025121,-0.169504539,0.143731189,-0.264028698,-0.723567852,-0.422278323,0.477932451
378,-0.855712891,0.213867188,-0.455078125,-0.064448498,0.193345495,-0.027696875,1655,-428,-6771,-0.977539063,-0.119140625,-0.112060547,-0.148071757,0.067644292,0.012783173,-5402,653,-496,-0.22441161,-0.948506631,-0.171659612,0.143204671,-0.265967894,-0.722685732,-0.42368503,0.476945916
379,-0.852783203,0.214599609,-0.456298828,-0.01438107,0.151800182,0.012783173,1655,-428,-6771,-0.976074219,-0.118164063,-0.109619141,-0.152865447,0.056459015,0.021305289,-5402,653,-496,-0.224607017,-0.948233196,-0.172715715,0.143439105,-0.268150363,-0.721730804,-0.424954756,0.476039374
380,-0.848876953,0.213134766,-0.459228516,-0.020772657,0.183225483,0.007989483,1656,-413,-6750,-0.981445313,-0.1171875,-0.102539063,-0.150734918,0.091080109,0.005326322,-5401,641,-516,-0.224787483,-0.94800879,-0.174021267,0.143061244,-0.269872192,-0.720954442,-0.426607583,0.474762744
381,-0.849121094,0.207275391,-0.456542969,-0.029827404,0.177366529,0.080427465,1656,-413,-6750,-0.979248047,-0.116455078,-0.100097656,-0.150202285,0.081492729,0.002130529,-5401,641,-516,-0.225338994,-0.947977928,-0.17396562,0.142464555,-0.271638288,-0.720048948,-0.428246709,0.47365273
382,-0.8515625,0.204345703,-0.460693359,-0.087351684,0.173638103,0.107591708,1656,-416,-6745,-0.979980469,-0.116455078,-0.103027344,-0.098004328,0.058056912,0.021837921,-5392,608,-805,-0.227034762,-0.947774739,-0.173557598,0.141619283,-0.273026631,-0.719375448,-0.428988168,0.473206695
383,-0.849121094,0.208251953,-0.452392578,-0.09853696,0.210922358,0.064981131,1656,-416,-6745,-0.983154297,-0.116699219,-0.100341797,-0.054328486,0.082025362,0.02396845,-5392,608,-805,-0.228722351,-0.947461591,-0.174168292,0.140242737,-0.273604864,-0.719174992,-0.429414507,0.472790536
384,-0.856689453,0.210205078,-0.455078125,-0.105993811,0.308926686,0.029827404,1652,-419,-6715,-0.982421875,-0.120849609,-0.098632813,-0.031425301,0.085753787,0.017044231,-5398,647,-505,-0.230110766,-0.947250472,-0.17592807,0.137167394,-0.273743758,-0.719064704,-0.429752372,0.472570847
385,-0.850097656,0.202880859,-0.461914063,-0.13209279,0.339819355,0.067644292,1652,-419,-6715,-0.977539063,-0.120605469,-0.103759766,-0.034088462,0.072437982,0,-5398,647,-505,-0.231921174,-0.947130463,-0.177206513,0.133245291,-0.273863094,-0.71868158,-0.430294457,0.472591232
386,-0.84765625,0.215087891,-0.459472656,-0.100134857,0.279631914,0.027696875,1656,-419,-6743,-0.976318359,-0.123535156,-0.105957031,-0.045806371,0.066579027,0.035153726,-5393,643,-500,-0.233283699,-0.94682989,-0.178874208,0.130751267,-0.274513351,-0.718481879,-0.430423208,0.472400329
387,-0.853271484,0.225341797,-0.447998047,0.083090626,0.233292911,-0.076166407,1656,-419,-6743,-0.984863281,-0.130859375,-0.100585938,-0.039947416,0.06231797,0.027164243,-5393,643,-500,-0.231165899,-0.946854921,-0.181795388,0.130301662,-0.2750278,-0.718181894,-0.430597124,0.472398766
388,-0.854003906,0.211181641,-0.458251953,0.124635939,0.241282395,-0.061252705,1658,-418,-6750,-0.978271484,-0.127441406,-0.104248047,-0.080427465,0.055393751,-0.025033714,-5396,639,-501,-0.22819969,-0.947150822,-0.184352569,0.129785791,-0.275693163,-0.717160023,-0.431862486,0.47240827
389,-0.8515625,0.209716797,-0.465576172,0.091080109,0.22104237,0.042077945,1658,-418,-6750,-0.978759766,-0.120361328,-0.102539063,-0.111852766,0.049002164,-0.020772657,-5396,639,-501,-0.226192466,-0.947622084,-0.184926216,0.129041268,-0.276932613,-0.715946819,-0.433307627,0.472200148
390,-0.849609375,0.209716797,-0.466796875,0.002663161,0.241282395,0.090547477,1677,-446,-6843,-0.975830078,-0.124023438,-0.10546875,-0.109722237,0.077764304,-0.01438107,-5389,628,-508,-0.225908187,-0.947921453,-0.18489484,0.127374678,-0.277929576,-0.71507057,-0.434812879,0.471558046
391,-0.847167969,0.207763672,-0.465576172,-0.060720073,0.210922358,0.123038042,1677,-446,-6843,-0.980224609,-0.119140625,-0.105957031,-0.13209279,0.068176924,-0.027696875,-5389,628,-508,-0.227003708,-0.947973834,-0.184281476,0.125917689,-0.279223084,-0.713867979,-0.436650655,0.470917385
392,-0.848632813,0.209472656,-0.464355469,-0.093210638,0.276968753,0.119842249,1674,-444,-6772,-0.978027344,-0.118652344,-0.107177734,-0.133690687,0.065513763,0.003728426,-5399,630,-491,-0.228466566,-0.948019301,-0.184124612,0.123128225,-0.280850004,-0.712903561,-0.438042664,0.470117444
393,-0.849365234,0.206298828,-0.467285156,-0.04314321,0.270577167,0.080960097,1674,-444,-6772,-0.983642578,-0.117675781,-0.101074219,-0.12250541,0.075101143,-0.015446334,-5399,630,-491,-0.228884287,-0.948127377,-0.184566417,0.120837486,-0.28207099,-0.711905601,-0.439642525,0.469404753
394,-0.844482422,0.208984375,-0.470458984,-0.010652644,0.257793994,0.040480049,1673,-429,-6774,-0.978759766,-0.115478516,-0.109375,-0.11771172,0.075633775,-0.02876214,-5396,606,-665,-0.228641735,-0.948199821,-0.185634679,0.119079058,-0.28308101,-0.71084187,-0.441395334,0.468763413
395,-0.847167969,0.216064453,-0.46484375,0.000532632,0.230097118,0.033023198,1673,-429,-6774,-0.980957031,-0.120117188,-0.1015625,-0.113983295,0.083623258,-0.001065264,-5396,606,-665,-0.228322126,-0.94821337,-0.18668364,0.117939093,-0.284224535,-0.710088088,-0.44276311,0.467923231
396,-0.845703125,0.210693359,-0.465820313,0.01438107,0.219444474,0.034621094,1674,-440,-6797,-0.977783203,-0.124511719,-0.100341797,-0.14647386,0.106526444,-0.017044231,-5390,640,-477,-0.227760113,-0.948272253,-0.187623473,0.117057665,-0.285461403,-0.709205343,-0.44479871,0.466576549
397,-0.843261719,0.205078125,-0.470703125,-0.017576863,0.226901325,0.027696875,1674,-440,-6797,-0.977539063,-0.120361328,-0.103515625,-0.193345495,0.093210638,-0.010652644,-5390,640,-477,-0.227723094,-0.948183155,-0.188806091,0.11594463,-0.287544226,-0.707988988,-0.447097271,0.464945095
398,-0.850341797,0.211425781,-0.460693359,0.025566346,0.234358176,-0.020240024,1684,-447,-6816,-0.981933594,-0.114746094,-0.104492188,-0.197073921,0.069774821,-0.004261058,-5398,636,-499,-0.226796031,-0.948103036,-0.190823574,0.115111066,-0.28996051,-0.706587234,-0.449191403,0.463556326
399,-0.848876953,0.209228516,-0.462890625,0.035686359,0.194943392,0.005858954,1684,-447,-6816,-0.979980469,-0.119384766,-0.107666016,-0.153930711,0.104395915,0,-5398,636,-499,-0.225875266,-0.948078449,-0.19213622,0.114940382,-0.291465075,-0.705782047,-0.451040973,0.462040965
400,-0.840820313,0.208740234,-0.472167969,0.045806371,0.267381373,0.039414784,1683,-448,-6807,-0.978271484,-0.12109375,-0.106201172,-0.130494893,0.09374327,0.018642128,-5391,645,-497,-0.224542396,-0.948401905,-0.193103431,0.113250181,-0.292896956,-0.705167624,-0.452352449,0.460789819
401,-0.842529297,0.196044922,-0.472412109,0.01917476,0.198671817,0.099602225,1683,-448,-6807,-0.975097656,-0.119628906,-0.104736328,-0.104928547,0.096939064,0.022903185,-5391,645,-497,-0.224055517,-0.948686268,-0.192692285,0.112530764,-0.29398104,-0.704761979,-0.453384157,0.459704805
402,-0.845214844,0.205078125,-0.469970703,-0.025566346,0.209857094,0.10812434,1679,-457,-6832,-0.978759766,-0.119873047,-0.104248047,-0.095341167,0.117179088,0.017576863,-5391,612,-748,-0.224439834,-0.948816454,-0.192264372,0.111393487,-0.294699635,-0.704540759,-0.454519197,0.458461278
403,-0.849609375,0.197753906,-0.464111328,-0.120374881,0.154995975,0.105461179,1679,-457,-6832,-0.979980469,-0.121337891,-0.1015625,-0.076166407,0.109722237,0.017044231,-5391,612,-748,-0.22679347,-0.94838223,-0.191877225,0.110990983,-0.295211827,-0.704345025,-0.455440014,0.457517711
404,-0.848876953,0.205322266,-0.46875,-0.114515927,0.13688648,0.077231672,1685,-467,-6829,-0.982421875,-0.125976563,-0.107177734,-0.06231797,0.086286419,0.017044231,-5392,639,-510,-0.229048957,-0.947821911,-0.191937046,0.111042207,-0.295713733,-0.704020227,-0.456113635,0.457022166
405,-0.850585938,0.197998047,-0.464355469,-0.120907513,0.154995975,0.067644292,1685,-467,-6829,-0.9765625,-0.121582031,-0.104980469,-0.090547477,0.121440146,0.00958738,-5392,639,-510,-0.231297745,-0.9472297,-0.192303307,0.110800213,-0.296243141,-0.703777211,-0.457344613,0.455821834
406,-0.846679688,0.197998047,-0.465332031,-0.098004328,0.181094954,0.063915866,1668,-464,-6820,-0.976074219,-0.123046875,-0.103515625,-0.11771172,0.100134857,-0.023435818,-5381,636,-505,-0.232988231,-0.946784604,-0.192823456,0.110156761,-0.297048311,-0.702867067,-0.459158673,0.454877456
407,-0.853759766,0.196289063,-0.463623047,-0.096939064,0.158724401,0.038882152,1668,-464,-6820,-0.979003906,-0.125976563,-0.106201172,-0.128896997,0.093210638,0.006924219,-5381,636,-505,-0.234677744,-0.946191525,-0.193728519,0.110078222,-0.298331947,-0.702101084,-0.460615134,0.453746422
408,-0.852783203,0.203613281,-0.4609375,-0.088416948,0.15126755,0.003728426,1668,-448,-6786,-0.978027344,-0.121582031,-0.101318359,-0.107591708,0.091080109,0.010652644,-5376,584,-821,-0.2361885,-0.945475449,-0.195245486,0.110319393,-0.299392691,-0.701466204,-0.461796583,0.452827889
409,-0.854980469,0.204101563,-0.464111328,-0.0793622,0.150734918,-0.017576863,1668,-448,-6786,-0.977050781,-0.125,-0.104248047,-0.13688648,0.069242188,-0.020772657,-5376,584,-821,-0.237469642,-0.9447161,-0.197148426,0.110689462,-0.300760098,-0.700166274,-0.463564546,0.452126602
410,-0.848144531,0.207763672,-0.46484375,-0.080427465,0.15606124,-0.04314321,1678,-460,-6793,-0.973876953,-0.124511719,-0.104003906,-0.144875963,0.086286419,-0.003728426,-5385,635,-511,-0.238698167,-0.94385927,-0.199558166,0.111037836,-0.302231292,-0.699123252,-0.465267439,0.451009019
411,-0.850097656,0.211181641,-0.467041016,-0.053795854,0.14647386,-0.038882152,1678,-460,-6793,-0.981445313,-0.12109375,-0.10546875,-0.134223319,0.064448498,0.010652644,-5385,635,-511,-0.239474988,-0.943119939,-0.201780014,0.111630354,-0.30389345,-0.698083144,-0.466534016,0.450194076
412,-0.846435547,0.202880859,-0.463134766,-0.047404267,0.166713884,-0.041545313,1677,-439,-6769,-0.974609375,-0.125732422,-0.111816406,-0.132625422,0.0479369,0.013315805,-5381,637,-514,-0.240012412,-0.942443187,-0.204143702,0.111893834,-0.305667428,-0.696932323,-0.467675576,0.449591277
413,-0.850341797,0.207519531,-0.469726563,-0.036218991,0.193345495,-0.061785337,1677,-439,-6769,-0.979736328,-0.119140625,-0.100341797,-0.12250541,0.082025362,-0.031425301,-5381,637,-514,-0.24019048,-0.941793207,-0.2069826,0.11176892,-0.306633243,-0.695710172,-0.469520151,0.448903374
414,-0.84765625,0.215820313,-0.467773438,-0.063915866,0.183225483,-0.051665325,1680,-459,-6863,-0.982421875,-0.119384766,-0.106689453,-0.145941228,0.08894958,-0.002663161,-5383,627,-505,-0.240989603,-0.941017467,-0.20963159,0.111645576,-0.308100552,-0.694683207,-0.471224543,0.447701598
415,-0.848632813,0.209228516,-0.462158203,-0.052197957,0.233292911,-0.026631611,1680,-459,-6863,-0.980224609,-0.119140625,-0.108154297,-0.149137021,0.104928547,-0.010120012,-5383,627,-505,-0.241397791,-0.940503633,-0.212036174,0.1105472,-0.309388797,-0.693703756,-0.473159169,0.446289225
416,-0.850341797,0.213378906,-0.468261719,-0.035686359,0.21624868,-0.002663161,1684,-433,-6775,-0.979003906,-0.120117188,-0.108642578,-0.114515927,0.076699039,-0.044741106,-5387,630,-506,-0.241619638,-0.940131371,-0.213865846,0.109701209,-0.310149622,-0.692355513,-0.475088353,0.445805017
417,-0.853271484,0.203857422,-0.456542969,-0.141147538,0.266316109,0.007989483,1684,-433,-6775,-0.979980469,-0.119873047,-0.104492188,-0.148604389,0.068176924,-0.05752428,-5387,630,-506,-0.243612949,-0.939385647,-0.215994124,0.107488956,-0.311360463,-0.690586695,-0.477431519,0.44520088
418,-0.850097656,0.220947266,-0.466552734,-0.093210638,0.247141349,0.03355583,1684,-436,-6773,-0.98046875,-0.122070313,-0.108154297,-0.158191769,0.091612741,-0.04314321,-5388,640,-518,-0.244877354,-0.938933577,-0.217433392,0.105648189,-0.312590386,-0.68910161,-0.479810628,0.444081055
